MS	x	y	z	vx	vy	vz	ax	ay	az	
78451	1.72983	0.0690128	0.475299	0.00921564	-0.164473	-2.5533e-10	0.277326	1.33893	-0.851098	
78811	1.71968	0.0762388	0.493459	-0.0111946	-0.00474176	9.71334e-11	-0.278906	0.701259	0.269815	
78841	1.71968	0.0762388	0.493459	-0.0107548	-0.00455515	2.05694e-11	-0.225824	0.754704	0.342823	
80221	1.71866	0.0817064	0.490771	0.00159079	-0.00685354	2.06917e-11	-0.27694	0.723877	0.229907	
80341	1.71795	0.0806661	0.491136	0.00141756	-0.00610724	5.60308e-11	-0.311449	0.733821	0.233462	
80401	1.71882	0.0807022	0.491282	0.00132815	-0.00572197	4.15491e-11	-0.276124	0.75182	0.276994	
80461	1.71889	0.0804227	0.491214	0.00125062	-0.00538795	4.51711e-11	-0.278738	0.751396	0.30114	
81151	1.71762	0.0803845	0.491205	0.000629406	-0.00271139	6.24478e-11	-0.278156	0.757945	0.297371	
81451	1.71744	0.0808005	0.49136	0.000465939	-0.00200712	6.39205e-11	-0.282208	0.781275	0.304383	
81511	1.7173	0.0811839	0.491252	0.000438736	-0.00188995	5.67183e-11	-0.356729	0.69191	0.236326	
81601	1.71811	0.0803188	0.490391	0.000400884	-0.0017269	2.24876e-11	-0.278261	0.760676	0.249863	
82231	1.71864	0.0808879	0.491816	0.00021318	-0.000918301	5.36879e-11	-0.24543	0.732248	0.298266	
83101	1.71758	0.0818369	0.492732	8.91156e-05	-0.000383889	2.52264e-11	-0.295784	0.669074	0.280294	
83551	1.71755	0.082136	0.49089	5.67604e-05	-0.000244505	3.68662e-11	-0.278119	0.737079	0.307219	
83731	1.71747	0.0824109	0.491719	4.73893e-05	-0.000204137	3.44179e-11	-0.253824	0.732836	0.229452	
83761	1.71747	0.0824109	0.491719	4.59855e-05	-0.000198089	2.76876e-11	-0.27159	0.749206	0.30764	
83791	1.71747	0.0824109	0.491719	4.46229e-05	-0.00019222	4.72712e-11	-0.278786	0.713682	0.315142	
83911	1.718	0.082872	0.491675	3.95652e-05	-0.000170433	3.54532e-11	-0.27705	0.682417	0.236355	
84001	1.71793	0.0828675	0.491671	3.61518e-05	-0.000155729	3.73945e-11	-0.279055	0.779673	0.311621	
84571	1.71722	0.0823053	0.491449	2.04155e-05	-8.79421e-05	1.71757e-11	-0.337966	0.762574	0.286262	
84601	1.71722	0.0823053	0.491449	1.99101e-05	-8.57655e-05	7.28738e-11	-0.264932	0.676495	0.303641	
85021	1.71743	0.0820809	0.491627	1.3068e-05	-5.62928e-05	5.84542e-11	-0.27667	0.67145	0.324746	
85471	1.71915	0.0823648	0.490056	8.32303e-06	-3.58532e-05	4.92403e-11	-0.272197	0.752809	0.234477	
85501	1.71915	0.0823648	0.490056	8.03617e-06	-3.4617e-05	2.28442e-11	-0.278084	0.760437	0.253824	
86131	1.71836	0.0814276	0.491359	4.27323e-06	-1.84073e-05	7.079e-12	-0.277235	0.724881	0.235967	
86161	1.71836	0.0814276	0.491359	4.1674e-06	-1.79517e-05	2.84298e-11	-0.277708	0.667221	0.236915	
86791	1.71826	0.0807697	0.48925	2.21585e-06	-9.54581e-06	5.85275e-11	-0.277648	0.753626	0.325153	
87450	1.72061	0.0834961	0.489638	1.14339e-06	-4.92564e-06	2.75303e-11	-0.278247	0.754437	0.305892	
87901	1.71687	0.0792988	0.49043	7.35367e-07	-3.16888e-06	7.54821e-11	-0.278973	0.765805	0.228734	
88321	1.71677	0.0787793	0.490144	4.77946e-07	-2.05912e-06	2.83537e-11	-0.277036	0.707379	0.315041	
88921	1.72028	0.0806631	0.489065	2.61902e-07	-1.12838e-06	1.47006e-11	-0.277661	0.757943	0.245011	
88981	1.71996	0.080722	0.489547	2.46612e-07	-1.06251e-06	1.4056e-11	-0.277964	0.758056	0.234266	
89311	1.71978	0.0798397	0.489445	1.78744e-07	-7.71009e-07	7.10244e-11	-0.315394	0.756488	0.236748	
89731	1.72047	0.0801754	0.489774	1.17262e-07	-5.06069e-07	9.37622e-11	-0.244024	0.692614	0.312541	
90091	1.72079	0.0804293	0.489582	8.13571e-08	-3.5098e-07	3.44043e-11	-0.274245	0.763211	0.229362	
90481	1.72078	0.0801991	0.489392	5.52017e-08	-2.38632e-07	6.45253e-11	-0.277418	0.755949	0.268856	
90511	1.72078	0.0801991	0.489392	5.343e-08	-2.30356e-07	1.55996e-11	-0.278777	0.726309	0.259994	
90631	1.72039	0.0797383	0.489386	4.73206e-08	-2.04265e-07	2.93512e-11	-0.278938	0.764052	0.244594	
90991	1.72035	0.0797811	0.489687	3.30331e-08	-1.4314e-07	5.79587e-11	-0.276483	0.758446	0.241495	
91351	1.72031	0.0792653	0.489442	2.29683e-08	-9.9256e-08	2.82498e-11	-0.278507	0.760968	0.313887	
91681	1.72048	0.0799696	0.48898	1.65001e-08	-7.16879e-08	4.23343e-11	-0.278226	0.72916	0.235191	
91711	1.72048	0.0799696	0.48898	1.60247e-08	-6.95574e-08	3.53203e-11	-0.279525	0.758797	0.235469	
92071	1.7211	0.0802876	0.488645	1.10909e-08	-4.85139e-08	4.9212e-11	-0.278282	0.753649	0.234343	
92791	1.72078	0.0798751	0.489194	5.32912e-09	-2.35934e-08	5.27213e-11	-0.278307	0.758062	0.292896	
93181	1.72099	0.0799104	0.488751	3.67674e-09	-1.59333e-08	7.10186e-12	-0.290679	0.673001	0.236729	
93211	1.72099	0.0799104	0.488751	3.4001e-09	-1.5613e-08	8.58197e-11	-0.275276	0.68437	0.286066	
93541	1.71931	0.0794926	0.488365	2.50836e-09	-1.11253e-08	2.97587e-11	-0.279346	0.762415	0.330652	
93571	1.71931	0.0794926	0.488365	2.4117e-09	-1.08046e-08	3.42509e-11	-0.277288	0.741083	0.285424	
93691	1.71917	0.0788564	0.488069	2.11038e-09	-9.59207e-09	4.16733e-11	-0.277806	0.711829	0.277822	
93991	1.71982	0.0789932	0.489967	1.46593e-09	-7.1721e-09	7.31278e-11	-0.278525	0.764862	0.304699	
95041	1.72027	0.0794308	0.489796	4.39977e-10	-2.52991e-09	5.74824e-11	-0.277974	0.753866	0.319347	
95461	1.72007	0.0795972	0.490113	2.8614e-10	-1.66051e-09	2.84183e-11	-0.27376	0.76417	0.236819	
96421	1.71982	0.0804572	0.489788	-8.1647e-11	-7.08552e-10	7.06435e-11	-0.279028	0.755641	0.235478	
96901	1.72075	0.0808309	0.493081	-1.2934e-11	-4.26559e-10	4.57602e-11	-0.282095	0.680855	0.305068	
97681	1.72155	0.0796538	0.492262	0.161288	-0.0361567	-5.55841e-11	-0.177107	-0.0126573	-0.926402	
97951	1.7295	0.0569355	0.475219	0.233149	0.0167916	-5.05613e-10	1.01276	-0.217562	-1.29644	
97981	1.7295	0.0569355	0.475219	0.222616	0.0206116	-6.45676e-11	0.552955	-0.359764	-1.07613	
98821	1.50327	0.170976	0.0183627	0.316435	0.059754	5.88143e-10	-1.56279	0.135385	1.78225	
99091	1.3632	0.186448	-0.0160435	0.310663	0.0273387	1.60032e-11	-1.79701	-0.292333	0.106688	
99151	1.32044	0.183968	-0.0164785	0.29256	0.0260926	-7.05758e-11	-1.82812	-0.279692	-0.470506	
99211	1.27771	0.183504	-0.0245591	0.27561	0.0251703	-1.07757e-10	-1.71027	-0.27435	-0.718382	
99331	1.23242	0.186646	-0.0377463	0.539655	0.0157806	-2.22763e-11	-1.20464	0.777921	-0.742544	
99361	1.23242	0.186646	-0.0377463	0.623351	0.0226751	-6.13813e-11	-1.13174	1.10119	-0.341007	
99481	1.06915	0.19041	-0.0909371	0.656527	0.0308999	1.2545e-10	-1.98553	2.58866	1.39389	
99691	0.888593	0.200398	-0.150382	0.461893	-0.0185652	3.77372e-10	-1.83745	1.82209	2.51582	
99841	0.818762	0.18384	-0.171159	0.404113	-0.0647212	1.57828e-10	-1.96266	0.940823	1.75365	
100201	0.650073	0.135196	-0.0687129	0.38625	-0.101653	2.35029e-10	-2.3593	1.25662	1.95857	
100711	0.482972	-0.00516248	0.0966402	-0.00482939	-0.0424653	2.34901e-10	-0.589336	1.26804	1.56601	
100771	0.489003	-0.00384541	0.11812	-0.0382182	-0.0476144	3.50905e-11	0.54995	0.251289	0.292421	
101130	0.448887	0.000245492	0.331308	-0.0095353	-0.0180696	-1.04866e-10	0.993152	0.260621	-0.291293	
101161	0.448887	0.000245492	0.331308	-0.00925446	-0.0237327	4.46238e-11	0.525199	0.172119	0.185933	
101431	0.477578	-0.00385574	0.401022	0.0619898	-0.0752736	4.65209e-11	1.68623	0.0363343	0.310139	
101761	0.475956	0.0073011	0.427253	-0.0016766	-0.0225789	1.85208e-10	0.570419	-0.318161	1.5434	
102541	0.488758	0.0215439	0.427529	-0.00076838	-0.0103002	1.91702e-10	0.642689	0.379841	1.27801	
103291	0.501074	0.0241834	0.432125	-0.000362293	-0.00485151	1.47762e-11	-0.27808	0.680197	0.24627	
103501	0.498577	0.0253314	0.430363	-0.000293519	-0.00393042	3.60529e-11	-0.274469	0.681044	0.300441	
103531	0.498577	0.0253314	0.430363	-0.000286255	-0.00383313	4.32251e-11	-0.276611	0.679286	0.240139	
103891	0.497972	0.0226437	0.430701	-0.000198538	-0.00265844	2.81144e-11	-0.276136	0.680578	0.312382	
103981	0.500872	0.0222841	0.432139	-0.000182322	-0.00244128	5.19984e-11	-0.277092	0.680895	0.247611	
104791	0.499776	0.0216325	0.428768	-8.09454e-05	-0.00108378	6.24643e-11	-0.276356	0.68049	0.347024	
105061	0.500888	0.0225176	0.427247	-6.1751e-05	-0.000826763	5.65401e-11	-0.334719	0.679478	0.314112	
105241	0.499483	0.0209859	0.429407	-5.15558e-05	-0.000690254	5.64737e-11	-0.273064	0.680929	0.313743	
105571	0.500103	0.0231656	0.430152	-3.70344e-05	-0.000495826	5.56391e-11	-0.276004	0.680739	0.309106	
105601	0.500103	0.0231656	0.430152	-3.59372e-05	-0.000481136	4.72568e-11	-0.27807	0.681282	0.315046	
105931	0.500671	0.0228271	0.430425	-2.58149e-05	-0.000345612	2.33029e-11	-0.277138	0.682063	0.388381	
107341	0.50206	0.022371	0.429614	-6.31205e-06	-8.45015e-05	4.76901e-11	-0.280305	0.680538	0.317934	
107371	0.50206	0.022371	0.429614	-6.15588e-06	-8.241e-05	7.90403e-11	-0.280536	0.681294	0.329334	
107881	0.502011	0.0220309	0.429096	-3.67335e-06	-4.91763e-05	5.13244e-11	-0.278677	0.6805	0.244402	
108601	0.501749	0.0220115	0.429183	-1.78486e-06	-2.38933e-05	6.75169e-11	-0.276476	0.680818	0.375094	
108931	0.501192	0.0218928	0.429139	-1.28865e-06	-1.72496e-05	9.30816e-11	-0.230416	0.682357	0.38784	
109231	0.50146	0.0220133	0.429146	-9.5398e-07	-1.27692e-05	9.49555e-11	-0.2763	0.681245	0.395648	
109411	0.501053	0.0220646	0.429194	-7.92457e-07	-1.06076e-05	3.92182e-11	-0.270944	0.680324	0.261455	
109471	0.501507	0.0220606	0.429159	-7.46181e-07	-9.98838e-06	3.75192e-11	-0.276053	0.681155	0.31266	
110011	0.501654	0.0220517	0.429296	-4.3426e-07	-5.81285e-06	3.44874e-11	-0.277045	0.681406	0.383194	
110041	0.501654	0.0220517	0.429296	-4.23596e-07	-5.669e-06	7.78573e-11	-0.261144	0.682101	0.370749	
110431	0.501122	0.0218165	0.429167	-2.86567e-07	-3.83451e-06	6.38389e-11	-0.276636	0.681928	0.303995	
110461	0.501122	0.0218165	0.429167	-2.78019e-07	-3.72088e-06	3.37255e-11	-0.277371	0.680626	0.281046	
110521	0.500912	0.0219057	0.42919	-2.60465e-07	-3.48614e-06	2.15233e-11	-0.277428	0.680194	0.239148	
110551	0.500912	0.0219057	0.42919	-2.55459e-07	-3.41702e-06	7.79101e-11	-0.323278	0.679445	0.236091	
110731	0.501279	0.0219288	0.42915	-2.11009e-07	-2.82431e-06	1.5941e-11	-0.277273	0.680445	0.265684	
111151	0.500698	0.0218407	0.42926	-1.39247e-07	-1.86309e-06	4.56309e-11	-0.275795	0.681502	0.380257	
111961	0.500488	0.0259037	0.429419	-6.1857e-08	-8.27151e-07	3.81941e-11	-0.27596	0.613402	0.318284	
112171	0.499982	0.0263405	0.429726	-5.01538e-08	-6.70138e-07	4.93872e-11	-0.277134	0.665681	0.329248	
112621	0.499281	0.0263163	0.429444	-3.19414e-08	-4.26812e-07	3.59838e-11	-0.212258	0.6832	0.39982	
113761	0.501076	0.0259204	0.429565	-1.02275e-08	-1.36131e-07	2.13013e-11	-0.276968	0.680107	0.236681	
114811	0.501369	0.0258463	0.429471	-3.64792e-09	-4.7771e-08	4.59286e-11	-0.244872	0.682196	0.382738	
114961	0.501053	0.025937	0.429681	-3.1909e-09	-4.1126e-08	7.03095e-11	-0.276073	0.681693	0.390609	
115681	0.499144	0.0264452	0.42964	-1.57244e-09	-1.99957e-08	3.60552e-11	-0.314611	0.680493	0.30046	
116071	0.498696	0.0265067	0.429773	-1.09003e-09	-1.35327e-08	2.83936e-11	-0.277758	0.680639	0.236613	
116401	0.499208	0.0264761	0.429614	-7.85416e-10	-9.72316e-09	2.13198e-11	-0.291144	0.678823	0.236886	
116431	0.499208	0.0264761	0.429614	-8.73192e-10	-9.58366e-09	5.67126e-11	-0.329984	0.680203	0.236302	
116791	0.500851	0.0259545	0.42969	-7.3956e-10	-6.74486e-09	8.53499e-11	-0.332876	0.67971	0.237083	
118021	0.499661	0.0262616	0.430015	-2.65876e-10	-1.97498e-09	4.4051e-11	-0.300928	0.679987	0.244728	
118501	0.499817	0.0263681	0.429569	-1.0862e-10	-1.18952e-09	7.55264e-12	-0.277175	0.679614	0.251755	
119011	0.498688	0.0263788	0.429726	-1.14502e-10	-7.36938e-10	2.80907e-11	-0.277526	0.681341	0.312119	
119101	0.499523	0.0264831	0.429567	-1.30296e-10	-6.85475e-10	3.94242e-11	-0.29115	0.680864	0.328535	
119131	0.499523	0.0264831	0.429567	-1.28919e-10	-6.63016e-10	4.01886e-11	-0.264602	0.681383	0.334905	
119161	0.499523	0.0264831	0.429567	-1.2741e-10	-6.46008e-10	3.35398e-11	-0.278729	0.680447	0.279499	
119491	0.500076	0.0262886	0.429576	-1.92764e-10	-5.08626e-10	5.71138e-11	-0.276652	0.665543	0.237974	
119881	0.499115	0.026767	0.429729	-6.30113e-11	-3.14254e-10	1.80471e-11	-0.277144	0.67967	0.300785	
120001	0.499319	0.0269541	0.42959	-6.04854e-11	-2.85033e-10	1.41701e-11	-0.352395	0.679567	0.236168	
120271	0.499945	0.0268623	0.429799	-3.54915e-11	-2.09595e-10	9.38455e-12	-0.276139	0.681813	0.312818	
120571	0.500111	0.0266006	0.429393	-1.33638e-10	-2.07068e-10	5.23756e-11	-0.31831	0.680284	0.290976	
120631	0.499716	0.0264965	0.429602	-1.30459e-10	-1.91164e-10	4.44321e-11	-0.278531	0.666246	0.246845	
121411	0.498358	0.0263657	0.428978	-3.53143e-10	-2.07715e-10	1.59163e-10	-0.278853	0.682845	0.312085	
121801	0.498624	0.0267071	0.429068	-6.46395e-11	-6.87172e-11	2.87994e-11	-0.278605	0.681995	0.319994	
121981	0.497905	0.027072	0.428778	-1.04742e-10	-7.70601e-11	3.56997e-11	-0.27082	0.680137	0.237998	
122101	0.497578	0.0265759	0.428756	-4.32475e-11	-4.89381e-11	1.88001e-11	-0.277182	0.680572	0.313335	
122431	0.498643	0.02351	0.432043	-5.49276e-11	-5.28797e-11	2.10904e-11	-0.327096	0.590853	0.234338	
122551	0.498693	0.0225367	0.433456	-4.2406e-11	-3.7199e-11	1.88179e-11	-0.277037	0.681151	0.313632	
122611	0.498178	0.0226954	0.433487	-4.22376e-11	-3.59639e-11	1.66277e-11	-0.276472	0.67984	0.277128	
122941	0.497946	0.0242314	0.429626	-8.29482e-11	-4.71291e-11	4.61839e-11	-0.276759	0.682571	0.384865	
123661	0.497667	0.0232244	0.429985	-1.4579e-10	-7.51703e-11	6.57733e-11	-0.32559	0.691819	0.313206	
123961	0.498043	0.0234931	0.429012	-1.43367e-10	-6.32765e-11	8.173e-11	-0.277359	0.680912	0.389191	
124291	0.4974	0.0238984	0.430643	-1.84185e-10	-7.86813e-11	6.40642e-11	-0.27796	0.681163	0.237275	
124441	0.497726	0.0251507	0.430661	-2.45399e-10	-1.02752e-10	1.11566e-10	-0.276697	0.681012	0.309906	
124681	0.497843	0.023961	0.430247	-1.22776e-10	-5.22819e-11	5.64548e-11	-0.276874	0.681077	0.313638	
125761	0.497728	0.0248961	0.43043	-8.25407e-11	-3.23808e-11	3.76388e-11	-0.262941	0.687324	0.313656	
125791	0.497728	0.0248961	0.43043	-1.93724e-10	-7.23955e-11	9.43297e-11	-0.238613	0.645545	0.314432	
126151	0.496798	0.0243011	0.430859	-4.08902e-11	-1.7091e-11	1.88185e-11	-0.275516	0.680806	0.313642	
126241	0.497273	0.0240492	0.430094	-6.09312e-11	-2.53866e-11	2.82364e-11	-0.276388	0.676589	0.313738	
126871	0.497021	0.0235666	0.430367	-4.08698e-11	-1.70891e-11	1.88168e-11	-0.280283	0.680825	0.313614	
128131	0.497742	0.022804	0.431725	-1.22193e-10	-4.9886e-11	5.38586e-11	-0.276715	0.678816	0.299214	
128491	0.496786	0.0227453	0.43085	-4.04359e-11	-1.66487e-11	1.42799e-11	-0.276579	0.673864	0.237998	
128671	0.497523	0.0239891	0.431126	-6.05643e-11	-2.54879e-11	2.82381e-11	-0.282698	0.6729	0.313757	
128791	0.49767	0.0229849	0.430862	-5.68902e-11	-2.48908e-11	2.83024e-11	-0.276122	0.632081	0.314471	
129301	0.497974	0.0242598	0.431292	-1.22714e-10	-4.97277e-11	5.31413e-11	-0.276131	0.681736	0.295229	
129841	0.498062	0.0235108	0.430755	-2.13395e-10	-9.06099e-11	1.03695e-10	-0.274533	0.646649	0.314226	
129991	0.498732	0.0227221	0.429813	-1.63362e-10	-6.61817e-11	7.52212e-11	-0.275707	0.680669	0.313422	
130111	0.498689	0.0221184	0.429932	-6.129e-11	-2.49206e-11	2.70164e-11	-0.276778	0.680992	0.300182	
130411	0.498198	0.0224002	0.428736	-8.20725e-11	-3.31842e-11	3.76301e-11	-0.276469	0.683933	0.313584	
131131	0.497528	0.0208925	0.428704	-1.22257e-10	-5.00902e-11	5.9025e-11	-0.278258	0.679202	0.327917	
132601	0.498553	0.0228338	0.430226	-1.83921e-10	-7.45616e-11	7.9695e-11	-0.276151	0.681188	0.295167	
133381	0.498071	0.0216528	0.428502	-1.22479e-10	-4.9664e-11	5.64978e-11	-0.275909	0.680438	0.313877	
133681	0.500412	0.0207123	0.428376	-1.22684e-10	-4.98685e-11	5.5984e-11	-0.277045	0.68158	0.311022	
133741	0.498892	0.0216204	0.428379	-4.08763e-11	-1.65906e-11	1.76114e-11	-0.276505	0.681271	0.293524	
133951	0.499629	0.0222542	0.428188	-9.70878e-11	-8.07349e-11	4.8069e-11	-0.448526	0.539377	0.26705	
134221	0.497425	0.0235474	0.429708	-3.34973e-11	-1.16512e-11	2.05591e-11	-0.194184	0.558288	0.342651	
135811	0.498981	0.0186589	0.429504	-5.34114e-11	-1.56741e-11	4.31024e-11	-0.130618	0.445095	0.359187	
136231	0.49521	0.0341774	0.423944	-5.2785e-11	-3.78794e-11	-9.71955e-11	-0.315661	0.439875	-0.809962	
137191	0.697418	0.190064	-0.20724	-0.369237	0.143061	3.79831e-10	-0.416293	0.522453	0.422034	
138121	0.907611	0.415333	-0.318073	-0.00194001	0.106632	-9.27102e-11	-0.28958	0.642972	-0.618068	
138241	0.910468	0.427644	-0.316366	0.0273805	0.0575259	-2.90302e-11	-0.318702	0.576371	-0.193535	
138271	0.910468	0.427644	-0.316366	0.00941452	0.059592	-2.07483e-11	-0.29043	0.618937	-0.115268	
138631	0.915106	0.46607	-0.353495	-0.014739	0.0275584	7.0976e-11	-0.373297	0.593991	0.591466	
138691	0.917411	0.467096	-0.355762	-0.00710936	0.0246207	8.38599e-11	-0.321978	0.658676	0.559066	
138721	0.917411	0.467096	-0.355762	0.00900771	0.0140047	1.01123e-10	-0.217435	0.605802	0.674155	
138751	0.917411	0.467096	-0.355762	0.0158005	0.0328851	7.42804e-11	-0.253245	0.633425	0.495202	
138781	0.917411	0.467096	-0.355762	0.0182473	0.020237	1.01432e-10	-0.12451	0.516969	0.676212	
138811	0.917411	0.467096	-0.355762	0.0105023	0.024198	6.22079e-11	-0.308519	0.830673	0.5184	
138841	0.917411	0.467096	-0.355762	0.000455677	0.0270124	9.78669e-11	-0.102022	0.619406	0.652446	
138901	0.914427	0.473847	-0.356046	-0.0061759	0.0453802	6.96313e-11	-0.0915788	0.666201	0.464209	
138961	0.915204	0.480314	-0.353391	-0.0216861	0.0536244	2.54517e-11	-0.135488	0.652903	0.424196	
138991	0.915204	0.480314	-0.353391	-0.015864	0.0489773	4.80996e-11	-0.165121	0.621463	0.320664	
139021	0.915204	0.480314	-0.353391	0.000464108	0.0452939	3.34553e-11	-0.303099	0.625965	0.223036	
139051	0.915204	0.480314	-0.353391	0.00428872	0.0429644	1.90956e-11	-0.269951	0.805664	0.15913	
140041	0.922673	0.55166	-0.349649	-0.0331199	0.000412551	4.7238e-11	-0.302199	0.727291	0.31492	
140191	0.922481	0.553913	-0.352623	0.0253473	-0.0383512	-2.23467e-12	-0.424719	0.769266	-0.0248296	
140791	0.930949	0.486887	-0.367367	-0.0158652	-0.148176	9.7152e-11	-0.320735	0.593665	0.64768	
140821	0.930949	0.486887	-0.367367	-0.0303763	-0.139809	1.62704e-11	-0.192448	0.702468	0.542346	
141571	0.99346	0.449057	-0.349007	-0.0420317	-0.100348	1.13658e-10	-0.274	0.791214	0.378859	
142261	1.02304	0.43854	-0.326516	-0.0120704	0.0664616	2.88258e-11	-0.370373	0.693016	0.240215	
142321	1.02509	0.449221	-0.321075	0.0168634	0.039379	3.30282e-11	-0.347461	0.671962	0.36698	
142561	1.00854	0.462886	-0.299747	0.0682481	-0.0397799	2.13682e-11	-0.306331	0.71744	0.101753	
143041	0.988216	0.444106	-0.302974	0.0535528	-0.0362848	8.41407e-11	-0.222295	0.738624	0.40067	
143724	0.945815	0.415254	-0.300132	0.0193844	-0.00336171	8.70577e-11	-0.224976	0.804749	0.36274	
143814	0.944936	0.413103	-0.293166	-0.015019	0.00953498	5.36224e-11	-0.306502	0.61989	0.357482	
144444	0.950034	0.406212	-0.30578	0.0184757	-0.0712256	6.06364e-11	-0.287876	0.596698	0.202121	
144924	0.952393	0.352179	-0.321605	-0.023056	-0.0292181	3.29213e-11	-0.0897355	0.712802	0.274344	
144984	0.954394	0.350396	-0.326221	-0.029789	-0.0202148	2.00035e-11	-0.143864	0.618972	0.333392	
145194	0.965356	0.358178	-0.344723	-0.0390797	0.0134548	3.35304e-11	-0.269589	0.668554	0.37256	
145224	0.965356	0.358178	-0.344723	-0.0363761	0.0204857	1.19502e-10	-0.249229	0.707062	0.497924	
145344	0.969422	0.363533	-0.353138	-0.0172172	0.0570731	9.55515e-11	-0.243284	0.705875	0.455007	
146424	0.919955	0.415417	-0.391705	0.0396673	0.0117248	5.07716e-11	-0.419183	0.626501	0.338477	
146454	0.919955	0.415417	-0.391705	0.0561846	0.0180175	6.21973e-11	-0.296476	0.607143	0.414649	
146635	0.903437	0.419203	-0.401598	0.0436276	0.0298812	9.8198e-11	-0.219277	0.759537	0.467609	
147624	0.902315	0.444646	-0.371805	0.0431645	-0.0450056	4.50471e-11	-0.216668	0.703056	0.115505	
148014	0.885221	0.402613	-0.354218	0.0307359	-0.095625	1.42424e-10	-0.230211	0.667137	0.474748	
148224	0.898899	0.376491	-0.353084	-0.0369529	-0.0800275	4.09462e-11	-0.193606	0.751909	0.341218	
149064	1.15519	0.265374	-0.340589	-0.481685	-0.257898	-4.80203e-12	-0.260465	0.329958	-0.0320135	
149544	1.39803	0.154617	-0.333027	-0.442453	-0.276336	8.39348e-11	-0.04882	0.506895	0.466304	
149814	1.55618	0.0711558	-0.347525	-0.398863	-0.139595	3.6594e-11	-0.121057	0.431518	0.6099	
150504	1.6778	0.181588	-0.309965	0.0311885	0.437566	-1.03718e-11	-0.593179	0.611907	-0.0691457	
150684	1.65785	0.269655	-0.292088	0.0959375	0.495897	-2.07094e-11	-0.567416	0.620912	-0.230104	
151314	1.49425	0.58491	-0.321032	0.304183	0.344067	9.4774e-12	-0.726081	0.777041	0.0789783	
152784	1.00293	0.517386	-0.362647	-0.0225354	-0.310397	1.045e-10	-0.186663	0.605293	0.49762	
153594	1.12139	0.361506	-0.373441	-0.167941	-0.03174	8.27327e-11	-0.335055	0.533303	0.459626	
154434	1.31758	0.320706	-0.381597	-0.242995	-0.167948	5.19902e-11	-0.289209	0.426017	0.346601	
154464	1.31758	0.320706	-0.381597	-0.246255	-0.174677	4.04387e-11	-0.284517	0.502698	0.336989	
154584	1.36925	0.296944	-0.375328	-0.234322	-0.167421	7.73542e-11	-0.301281	0.489815	0.322309	
154614	1.36925	0.296944	-0.375328	-0.227043	-0.182797	6.38938e-11	-0.371938	0.580058	0.266224	
154734	1.39998	0.27438	-0.371066	-0.210156	-0.201819	2.41833e-11	-0.375407	0.462123	0.201527	
155064	1.47639	0.221312	-0.356833	-0.146845	-0.221254	1.37642e-11	-0.255483	0.609704	0.152936	
155154	1.49917	0.195796	-0.353581	-0.126716	-0.164518	1.43519e-11	-0.194148	0.627547	0.239198	
155694	1.59774	0.140757	-0.351644	-0.175596	-0.0703539	2.51164e-11	-0.310216	0.416584	0.418607	
156264	1.7092	0.135628	-0.356984	-0.19451	0.0396723	2.66498e-11	-0.180697	0.504314	0.444163	
156864	1.78476	0.173977	-0.354109	-0.0105058	0.0219162	3.0224e-11	-0.349592	0.728492	0.251867	
157374	1.74356	0.18938	-0.355733	0.217646	0.0596806	1.66483e-11	-0.166356	0.735337	0.277472	
157404	1.74356	0.18938	-0.355733	0.238733	0.0745303	1.92072e-11	-0.168281	0.827226	0.128048	
157734	1.63342	0.200005	-0.376857	0.307275	0.113829	3.83223e-11	-0.274654	0.763186	0.425804	
157824	1.59832	0.20611	-0.381339	0.297195	0.118643	7.03699e-11	-0.218027	0.851924	0.586416	
158034	1.53573	0.222013	-0.389721	0.25607	0.122899	3.07729e-11	-0.260652	0.769894	0.512882	
158484	1.38151	0.278481	-0.401852	0.17452	0.156337	1.64884e-11	-0.43514	0.71666	0.183205	
158935	1.2809	0.337748	-0.420764	0.0684849	0.0836242	3.56711e-11	-0.200005	0.666996	0.396345	
159324	1.22934	0.369389	-0.432315	0.0643782	0.045903	1.46947e-11	-0.547949	0.790313	0.244911	
160284	1.15803	0.315689	-0.427867	0.0599054	-0.251669	5.8376e-11	-0.160255	0.581626	0.486467	
161244	1.2127	0.0822659	-0.406811	0.0821265	-0.16045	2.10632e-11	-0.28712	0.716683	0.234036	
162234	1.15382	-0.0699188	-0.416221	0.0758445	0.0412818	9.85899e-11	-0.356283	0.631451	0.410791	
164034	0.958604	0.224032	-0.419818	-0.0131149	0.366366	3.22148e-11	-0.396364	0.571878	0.214765	
164844	0.837608	0.487461	-0.45181	-0.0246946	0.131881	5.57871e-11	-0.496164	0.510142	0.464892	
164874	0.837608	0.487461	-0.45181	-0.0364717	0.13663	7.24488e-11	-0.455629	0.4666	0.60374	
166164	0.883501	0.624585	-0.434374	-0.0487723	-0.00220605	1.79676e-11	-0.441886	0.576816	0.29946	
166314	0.890691	0.626931	-0.434763	-0.00610496	0.0331736	1.97607e-11	-0.404617	0.484968	0.131738	
166734	0.873123	0.63756	-0.453825	0.1257	0.0669266	1.40448e-10	-0.236531	0.423936	0.468161	
166794	0.863741	0.636004	-0.46331	0.149257	0.0828828	1.59829e-10	-0.18069	0.516247	0.532763	
167034	0.826696	0.641126	-0.479254	0.15482	0.136308	5.12703e-11	-0.420904	0.569412	0.427253	
167184	0.801673	0.646558	-0.486503	0.13657	0.249194	6.14444e-11	-0.392344	0.581567	0.341358	
167454	0.712902	0.684898	-0.507817	0.189291	0.310466	7.13395e-11	-0.371119	0.588541	0.396331	
167604	0.674129	0.707509	-0.5191	0.174626	0.298712	6.05608e-11	-0.536148	0.645366	0.336449	
167664	0.662591	0.712616	-0.521826	0.187844	0.336482	5.34797e-11	-0.272351	0.47916	0.356532	
167874	0.574978	0.781443	-0.528016	0.0894851	0.381562	1.17234e-10	-0.434405	0.708609	0.558257	
168205	0.515742	0.872379	-0.537722	-0.111627	0.300987	7.40135e-11	-0.539251	0.375789	0.274124	
168324	0.487551	0.931164	-0.550838	-0.169567	0.31111	1.05431e-10	-0.459675	0.503076	0.439296	
168625	0.496003	1.02785	-0.551358	-0.278471	0.247779	1.22498e-10	-0.388645	0.544157	0.510407	
168954	0.566388	1.16035	-0.548173	-0.408973	0.147853	2.35865e-11	-0.4769	0.393744	0.196554	
169494	0.789118	1.35104	-0.579045	-0.954169	0.281841	9.40312e-11	-0.508287	0.20229	0.447767	
169704	0.901949	1.42567	-0.587965	-0.625354	0.181249	8.93124e-11	-0.270633	0.37642	0.49618	
169734	0.901949	1.42567	-0.587965	-0.667568	0.203534	7.50638e-11	-0.353186	0.218728	0.625532	
169854	0.987511	1.49935	-0.593869	-0.706796	0.232986	7.04727e-11	-0.302146	0.239033	0.469818	
170094	1.12292	1.5887	-0.600158	-0.579767	0.194341	2.03776e-11	-0.47357	0.384463	0.113209	
170214	1.21312	1.65604	-0.599683	-0.433232	0.169727	9.47354e-12	-0.502505	0.467957	0.0631569	
170245	1.21312	1.65604	-0.599683	-0.444108	0.175936	4.12229e-11	-0.338851	0.299921	0.229016	
170454	1.35997	1.73219	-0.602809	-0.4201	0.0107391	1.5177e-10	-0.395658	0.270907	0.45991	
170484	1.35997	1.73219	-0.602809	-0.368537	-0.0202967	4.18231e-11	-0.340002	0.479969	0.348526	
171564	1.94456	1.48807	-0.597858	0.000585995	-0.616226	2.62356e-11	0.0745618	0.391695	0.21863	
172434	1.81452	0.949918	-0.722741	0.429074	-0.321675	1.5349e-11	0.0496936	0.940823	0.255817	
174444	0.912257	0.60704	-0.774788	0.109526	0.319115	2.95427e-11	-0.365333	0.778571	0.328253	
174474	0.912257	0.60704	-0.774788	0.0937807	0.306557	2.68033e-11	-0.651042	0.675506	0.297814	
174624	0.874711	0.646298	-0.762719	0.0177571	0.212099	2.83215e-11	-0.349284	0.620066	0.236013	
174984	0.863943	0.727622	-0.752362	-0.197623	0.18426	1.68522e-11	-0.416027	0.552416	0.280869	
175374	0.956262	0.809266	-0.745865	-0.422829	0.0709801	3.9357e-11	-0.353512	0.352484	0.187414	
175884	1.19017	0.85601	-0.778569	-0.423317	-0.06482	6.98712e-11	-0.137826	0.44988	0.155269	
176154	1.27315	0.829225	-0.77855	-0.101422	-0.237881	3.57424e-11	-0.0982641	0.551313	0.198569	
176365	1.30593	0.784006	-0.772023	0.0104407	-0.193456	3.59546e-12	0.0705978	0.655843	0.0171212	
177504	1.34538	0.815927	-0.837954	-0.120239	0.192154	3.21496e-11	-0.209097	0.639136	0.535826	
177595	1.3587	0.845794	-0.842033	-0.128214	0.198592	4.39629e-11	-0.41296	0.615477	0.366358	
177624	1.3587	0.845794	-0.842033	-0.130518	0.1572	3.96628e-11	-0.383917	0.683074	0.440698	
177684	1.36167	0.859169	-0.841385	-0.139851	0.161095	4.80925e-11	-0.234885	0.659863	0.400771	
177984	1.40248	0.904434	-0.842563	-0.158869	0.00583944	1.81461e-11	-0.175218	0.678759	0.201623	
178044	1.41922	0.912592	-0.840055	-0.154852	-0.0225824	3.7382e-11	-0.149386	0.574303	0.311516	
178734	1.55732	0.81182	-0.808821	-0.15143	-0.390631	3.89047e-11	0.168137	0.760227	0.432274	
179484	1.72279	0.56105	-0.740658	-0.0737672	-0.188799	2.88999e-11	0.140488	0.665649	0.160555	
179814	1.73495	0.518483	-0.737222	0.0597961	0.02885	2.26558e-11	-0.1522	0.83979	0.0839105	
180565	1.58133	0.557396	-0.801817	0.438219	0.101649	5.97312e-11	-0.228037	0.955133	0.398208	
180715	1.49156	0.562084	-0.812249	0.49545	0.0743046	1.11603e-10	-0.180043	0.960345	0.620017	
180864	1.44222	0.565657	-0.814556	0.556325	0.041678	7.08443e-11	-0.00179613	0.922257	0.590369	
180984	1.34161	0.562592	-0.796695	0.575353	0.00355864	3.88841e-11	-0.18579	1.10098	0.324035	
181734	1.18245	0.491268	-0.761449	-0.0847914	-0.128011	5.60276e-11	0.0807396	0.535903	0.311264	
182304	1.29824	0.415394	-0.745087	-0.312559	-0.152389	1.22941e-10	0.0488757	0.52468	0.585436	
182334	1.29824	0.415394	-0.745087	-0.352491	-0.157331	4.22292e-11	0.00786616	0.681841	0.469213	
182424	1.34818	0.402912	-0.738366	-0.399661	-0.14089	1.05674e-10	-0.021202	0.536064	0.503208	
183234	1.53434	0.389224	-0.68599	-0.0584556	0.0191488	8.03881e-12	-0.119259	0.74418	0.0535921	
183294	1.54168	0.392346	-0.683838	-0.045805	0.0173368	-9.61009e-12	-0.285852	0.820413	-0.0291215	
183324	1.54168	0.392346	-0.683838	-0.0401393	0.0107346	-7.3136e-12	-0.241235	0.89321	-0.0812623	
183864	1.57061	0.405229	-0.711016	-0.0256307	-0.039592	5.77689e-11	-0.217799	0.785632	0.481408	
184945	1.35531	0.588199	-0.818608	0.395444	0.521368	5.46731e-11	-0.326795	0.808044	0.455609	
185034	1.3095	0.63468	-0.829338	0.422665	0.578769	2.78113e-11	-0.722217	0.939239	0.463521	
185094	1.27644	0.668482	-0.836715	0.447427	0.604224	8.08846e-11	-0.67277	0.796697	0.449359	
185304	1.17869	0.761102	-0.859619	0.48749	0.741791	5.68177e-11	-0.664146	0.916126	0.270561	
185934	0.711602	1.08989	-0.905856	0.658391	0.330191	1.21586e-10	-0.370851	1.01996	0.578979	
186444	0.361135	1.15254	-0.849188	0.562018	-0.197883	4.94986e-11	-0.358032	0.903565	0.274992	
186804	0.200631	1.04347	-0.781569	0.224061	-0.495194	-1.48101e-11	-0.202217	0.728745	-0.0352622	
186834	0.200631	1.04347	-0.781569	0.172856	-0.598866	1.81372e-11	-0.00488028	0.862616	0.120915	
186864	0.200631	1.04347	-0.781569	0.155036	-0.632567	2.34604e-11	-0.0571804	0.79721	0.156402	
187134	0.165404	0.899141	-0.745783	0.0345996	-0.72699	3.98045e-11	0.196819	0.775186	0.331704	
187194	0.18388	0.810797	-0.716749	0.0106997	-0.69763	2.01412e-10	0.233194	0.718754	0.479551	
187734	0.313824	0.495521	-0.624598	-0.218115	-0.362428	2.40654e-13	0.161136	0.428138	0.00267393	
187884	0.388097	0.43072	-0.594856	-0.331369	-0.321072	-5.54562e-12	-0.0387504	0.448061	-0.061618	
187914	0.388097	0.43072	-0.594856	-0.358852	-0.299401	-9.61212e-12	0.0284524	0.399027	-0.080101	
187944	0.388097	0.43072	-0.594856	-0.360043	-0.274875	-1.21086e-11	-0.0561907	0.402459	-0.13454	
187974	0.388097	0.43072	-0.594856	-0.363658	-0.271014	-1.13981e-11	0.185738	0.30951	-0.126646	
188005	0.388097	0.43072	-0.594856	-0.339518	-0.241546	-2.02096e-11	-0.00683049	0.438338	-0.336827	
188454	0.699977	0.295329	-0.577765	-0.556106	-0.0249359	3.79428e-11	-0.190025	0.239105	0.252952	
188934	0.966127	0.324534	-0.628858	-0.515029	0.0947505	1.06958e-10	-0.507512	0.387457	0.594212	
190104	1.28381	0.710033	-0.696494	0.097572	0.50445	1.01415e-10	-0.512433	0.786461	0.375609	
190194	1.26643	0.756693	-0.699472	0.149867	0.513078	7.32603e-11	-0.515119	0.675363	0.610503	
190374	1.2247	0.848944	-0.705659	0.252815	0.505605	3.52561e-11	-0.655512	0.82695	0.391735	
190464	1.20234	0.872229	-0.70838	0.418822	0.497629	2.68859e-11	-0.617555	0.735704	0.298732	
190644	1.12884	0.944424	-0.715267	0.429355	0.423838	6.42149e-11	-0.516033	0.633402	0.267562	
191184	0.874833	1.06031	-0.727049	0.538694	0.137071	1.34289e-10	-0.478661	1.00804	0.344332	
191544	0.646692	1.06962	-0.73219	0.517184	-0.0126493	2.31042e-11	-0.442832	0.89602	0.38507	
192594	0.150779	0.803407	-0.761257	0.137229	-0.409717	4.89409e-11	-0.219233	0.796773	0.407841	
192864	0.132253	0.684831	-0.792558	-0.0254861	-0.380281	8.73435e-11	0.0633384	0.554456	0.58229	
192985	0.13667	0.641646	-0.805662	-0.0275973	-0.32946	6.16666e-11	-0.177921	0.694596	0.411111	
193014	0.13667	0.641646	-0.805662	-0.0362281	-0.318421	6.66626e-11	-0.128313	0.607381	0.444417	
193404	0.172502	0.514135	-0.813337	-0.160648	-0.367229	3.22369e-11	-0.141396	0.403006	0.268641	
194544	0.591158	0.323786	-0.727327	-0.485876	0.100823	2.63671e-11	-0.320041	0.229402	0.292968	
194815	0.741853	0.375076	-0.711701	-0.588402	0.145471	1.37446e-10	-0.404053	0.235927	0.458152	
194874	0.759293	0.383802	-0.713333	-0.580541	0.152042	3.46397e-11	-0.420234	0.253253	0.577328	
194905	0.759293	0.383802	-0.713333	-0.608852	0.186152	6.13077e-11	-0.352305	0.135379	0.681197	
194934	0.759293	0.383802	-0.713333	-0.61269	0.20295	1.48339e-10	-0.35182	0.338087	0.706377	
195324	1.02973	0.583475	-0.686037	-0.484541	0.480365	4.10254e-11	-0.553478	0.270064	0.195359	
195534	1.09676	0.696595	-0.67762	-0.337914	0.601747	-1.45384e-10	-0.64144	0.143321	-0.346152	
196584	0.998322	1.32894	-0.77817	0.31496	0.456067	2.34962e-11	-0.651293	0.715604	0.156641	
196704	0.939992	1.39941	-0.801099	0.431657	0.31972	-7.90479e-12	-0.656174	0.866884	-0.087831	
196914	0.839684	1.45715	-0.829352	0.394906	0.163475	1.61763e-11	-0.496566	0.811626	0.134803	
197604	0.478381	1.45584	-0.931475	0.481066	-0.227245	4.29404e-11	-0.242623	0.892623	0.477116	
197965	0.328237	1.32165	-0.948798	0.252767	-0.506641	3.09049e-11	-0.11047	0.746652	0.343388	
198234	0.297319	1.17736	-0.955449	0.0118466	-0.912727	2.33439e-11	0.14724	0.531643	0.389066	
199134	0.527559	0.548993	-0.910462	-0.457465	-0.609044	6.10691e-11	0.343758	0.401058	0.339273	
199404	0.665002	0.397879	-0.906032	-0.491811	-0.37128	7.39268e-11	0.282332	0.4403	0.246423	
199764	0.887761	0.280981	-0.922506	-0.519745	-0.0525547	3.63089e-11	-0.114555	0.306475	0.24206	
200514	1.18926	0.44143	-0.954913	-0.101648	0.510519	4.29764e-11	-0.455284	0.729454	0.477515	
200574	1.19546	0.469289	-0.954071	-0.0585522	0.551804	1.75078e-10	-0.416331	0.546616	0.448918	
200904	1.19366	0.706216	-0.968962	0.0412539	0.734986	1.85162e-11	-0.766575	0.551839	0.308603	
200934	1.19366	0.706216	-0.968962	0.0488367	0.773949	3.26579e-11	-0.8042	0.621795	0.362865	
200994	1.18604	0.756502	-0.969064	0.0672236	0.812293	6.40076e-11	-0.705051	0.776082	0.533397	
201354	1.12853	1.00231	-0.983093	0.211782	0.852915	1.09276e-10	-0.788153	0.764001	0.455317	
201624	1.03083	1.19418	-0.987238	0.341483	0.495457	6.11808e-11	-0.552114	0.730804	0.291337	
201715	1.00205	1.2271	-0.988159	0.394043	0.417385	1.25831e-11	-0.694117	0.917622	0.0838877	
202644	0.490386	1.44082	-1.08179	0.583702	-0.0552065	7.48268e-11	-0.0843938	1.04214	0.415704	
202944	0.327562	1.37959	-1.12012	0.499973	-0.330002	1.32942e-10	-0.0743433	0.922119	1.10785	
203454	0.183091	1.17063	-1.08164	0.0722469	-0.857847	3.95589e-11	-0.0960504	0.617764	0.329658	
203544	0.174137	1.11317	-1.06556	0.00469974	-0.916583	1.77929e-11	-0.0100346	0.705377	0.197698	
204654	0.485863	0.472294	-0.814889	-0.413694	-0.354294	2.47908e-11	-0.0778502	0.428126	0.103295	
205464	0.890974	0.423596	-0.763298	-0.475208	0.267367	4.81022e-11	-0.285717	0.268687	0.267235	
205824	1.07632	0.58857	-0.775991	-0.301963	0.480251	4.53426e-11	-0.55458	0.480808	0.251903	
206064	1.13659	0.704792	-0.795452	-0.131103	0.488773	3.66385e-11	-0.618737	0.601784	0.203547	
206455	1.16421	0.889162	-0.831528	0.0341566	0.435547	1.63596e-11	-0.514149	0.690137	0.181774	
206574	1.15861	0.956758	-0.848451	0.0942524	0.495293	5.09693e-11	-0.556974	0.667075	0.339795	
206605	1.15861	0.956758	-0.848451	0.0916338	0.482263	8.32826e-11	-0.475889	0.561031	0.396584	
206724	1.14407	1.00053	-0.864231	0.0996927	0.332161	-1.5359e-11	-0.494844	0.759136	-0.0568852	
206994	1.10887	1.0789	-0.891289	0.191069	0.212842	4.02428e-12	-0.404165	0.655492	0.0447142	
207144	1.08054	1.10702	-0.9165	0.307459	0.108148	2.57546e-11	-0.576411	0.748282	0.214621	
207204	1.0526	1.12078	-0.931197	0.315708	0.0902598	7.34212e-11	-0.290648	0.739609	0.305922	
207384	1.00384	1.1258	-0.962419	0.321553	-0.0074981	1.59051e-10	-0.259117	0.743682	0.662712	
207594	0.943174	1.10578	-0.987337	0.385321	-0.145269	1.23481e-10	-0.234958	0.889148	0.588004	
208254	0.716139	0.886589	-0.960081	0.291308	-0.466875	2.8659e-11	0.0148427	0.795275	0.47765	
208285	0.716139	0.886589	-0.960081	0.294736	-0.467025	3.46649e-11	0.28323	0.667632	0.385165	
208314	0.716139	0.886589	-0.960081	0.30039	-0.451839	5.2837e-11	0.0222873	0.875275	0.160112	
209124	0.651279	0.631816	-0.865707	-0.0063901	0.0852079	2.64633e-11	-0.117499	0.621476	0.220527	
209514	0.704009	0.708015	-0.872755	-0.255731	0.371067	9.44566e-11	-0.438902	0.603279	0.449794	
209964	0.741963	0.902004	-0.89325	-0.0508998	0.364741	3.70971e-11	-0.661911	0.486375	0.41219	
210354	0.745861	0.988937	-0.851263	0.0381052	-0.079389	3.69315e-11	-0.287085	0.670546	0.24621	
210385	0.745861	0.988937	-0.851263	0.0423028	-0.0677459	3.30382e-11	-0.191495	0.659955	0.157325	
210534	0.74703	0.98435	-0.844192	0.00483815	-0.037425	4.5353e-11	0.0567072	0.649514	0.377942	
211014	0.75614	0.938925	-0.818715	0.0208411	-0.177052	1.27327e-11	-0.0772392	0.566669	0.141474	
211284	0.733282	0.872842	-0.796731	0.181525	-0.391601	1.07261e-11	0.0132795	0.622293	0.0510766	
211524	0.696891	0.785683	-0.792725	0.312828	-0.524666	6.54612e-12	0.0217656	0.752205	0.054551	
212244	0.45444	0.31859	-0.814013	0.629839	-0.466163	3.89288e-12	0.0254823	1.09068	0.0216271	
212334	0.411155	0.270215	-0.810202	0.577886	-0.389175	1.97903e-11	0.123695	0.914685	0.219892	
212424	0.334898	0.175849	-0.803679	0.487929	-0.344041	2.59297e-11	-0.0421585	1.05302	0.172865	
213535	0.172758	0.0307386	-0.884012	-0.193864	0.281077	6.77943e-11	-0.449545	0.539329	0.451962	
214014	0.318674	0.222738	-0.832288	-0.563164	0.320757	5.11714e-12	-0.556848	0.431821	0.0568572	
214074	0.367108	0.266835	-0.82041	-0.648774	0.227708	-1.3039e-11	-0.614343	0.327316	-0.0620904	
215154	0.530026	0.613689	-0.819861	0.0729579	0.11511	7.27382e-12	-0.453045	0.567164	0.0404101	
215214	0.528448	0.621346	-0.843648	0.0735384	0.120589	4.0987e-11	-0.361212	0.511217	0.227706	
215604	0.482805	0.653394	-0.886929	0.0326469	0.0492918	6.83719e-11	-0.133404	0.640316	0.569766	
215994	0.469701	0.685643	-0.908668	-0.0187128	0.0722466	3.22086e-11	-0.271475	0.590058	0.268405	
216684	0.488549	0.751085	-0.936111	-0.0404105	-0.0102982	3.79351e-11	-0.325234	0.460872	0.421501	
216804	0.488682	0.747417	-0.937476	-0.019641	-0.0685045	7.16001e-11	-0.218303	0.55804	0.596667	
216865	0.488133	0.744523	-0.93713	-0.0173283	-0.0788861	1.01736e-10	-0.213355	0.636996	0.67824	
216894	0.488133	0.744523	-0.93713	-0.00286637	-0.082011	6.57598e-11	-0.337198	0.504278	0.730664	
216924	0.488133	0.744523	-0.93713	0.00909833	-0.0887179	6.76051e-11	-0.19962	0.558726	0.751168	
217404	0.478487	0.673937	-0.874232	-0.0070815	-0.0963338	5.76955e-12	-0.0404531	0.631465	0.0961592	
217434	0.478487	0.673937	-0.874232	-0.0115539	-0.105299	1.36773e-11	-0.143335	0.558999	0.15197	
218514	0.50587	0.587079	-0.81618	-0.0556921	0.0688589	5.13511e-12	-0.355177	0.626954	0.17117	
218634	0.506895	0.598699	-0.822665	-0.0285965	0.118979	5.28195e-11	-0.384893	0.507233	0.251521	
218784	0.502173	0.619567	-0.83413	0.00743721	0.108786	5.96656e-11	-0.246361	0.531409	0.397771	
219324	0.495037	0.670684	-0.861509	0.0109252	-0.0304007	2.31592e-11	-0.258497	0.564089	0.385987	
219504	0.488584	0.663161	-0.866871	0.0231307	-0.01809	5.2715e-11	-0.1682	0.632466	0.351433	
220224	0.485294	0.637727	-0.864801	-0.0163474	-0.0291479	4.21346e-11	-0.133482	0.561356	0.468162	
220284	0.485078	0.636264	-0.86256	-0.0119891	-0.00724994	9.08597e-11	-0.112069	0.639379	0.432665	
220314	0.485078	0.636264	-0.86256	-0.0145798	-0.0144421	9.44076e-11	-0.0115169	0.650723	0.393365	
220374	0.483818	0.632814	-0.876754	-0.0110822	-0.0136024	4.67749e-11	-0.251083	0.542653	0.389791	
220434	0.482443	0.630211	-0.881124	-0.00158731	0.0132666	5.23915e-11	-0.147337	0.641721	0.582128	
220705	0.468131	0.637901	-0.87635	0.0447349	0.0818945	5.46902e-11	0.0591679	0.719149	0.364601	
221034	0.465784	0.671187	-0.864335	-0.0117718	0.172101	4.43773e-11	-0.214874	0.781966	0.493081	
221064	0.465784	0.671187	-0.864335	-0.0296096	0.166706	4.27499e-11	-0.359527	0.690901	0.474999	
221094	0.465784	0.671187	-0.864335	-0.0320681	0.155644	2.55288e-11	-0.214314	0.799836	0.425481	
221124	0.465784	0.671187	-0.864335	-0.0292662	0.138569	5.91978e-11	-0.310379	0.640443	0.394652	
221154	0.465784	0.671187	-0.864335	-0.0384712	0.1314	6.4188e-11	-0.389559	0.749641	0.305657	
222594	0.446875	0.691974	-0.807563	-0.00422946	0.211496	8.82953e-10	-0.182566	0.83694	4.90529	
223194	0.377766	0.796246	-0.441969	0.254874	-0.350365	-4.08682e-11	0.177857	0.719079	-0.340569	
223224	0.377766	0.796246	-0.441969	0.274482	-0.387388	-2.83745e-11	-0.0181568	0.686548	-0.236454	
223254	0.377766	0.796246	-0.441969	0.263271	-0.4099	4.1593e-11	0.0789054	0.686188	0.277287	
223284	0.377766	0.796246	-0.441969	0.248013	-0.427134	2.1133e-11	0.0109031	0.789275	0.176108	
223315	0.377766	0.796246	-0.441969	-0.0145988	-0.175524	6.41618e-11	0.133389	0.729576	0.356454	
223674	0.362188	0.665105	-0.0878589	-0.265746	-0.219999	4.64769e-11	-0.130171	0.549951	0.387308	
223854	0.384212	0.590212	0.0889453	-0.290997	-0.315664	1.55585e-10	0.0375345	0.472077	0.576242	
224244	0.421649	0.465484	0.377208	-0.108187	-0.230512	3.37851e-10	-0.322627	0.885511	3.7539	
224274	0.421649	0.465484	0.377208	-0.105536	-0.22478	-8.52166e-11	-0.354731	1.50705	-0.405793	
225384	0.415439	0.465836	0.380235	-0.0217546	-0.0626516	6.55782e-11	-0.291097	0.680575	0.312277	
226614	0.413799	0.468892	0.376487	-0.00055489	-0.0598923	4.81205e-11	-0.211629	0.682598	0.320803	
226764	0.413639	0.470037	0.37829	0.000926307	-0.0579311	4.71132e-11	-0.196274	0.682819	0.314088	
227124	0.413742	0.468417	0.378594	0.00150253	-0.0557982	2.76223e-11	-0.278655	0.680052	0.230186	
230064	0.416767	0.469343	0.377841	-0.00293341	-0.0580603	4.68609e-11	-0.277629	0.682266	0.312406	
