MS	x	y	z	vx	vy	vz	ax	ay	az	
78150	0.0648221	-1.72798	0.408222	0	0	0	-9.35706e+06	-32606.5	6.61601e+07	
78181	0.0636002	-1.73064	0.419301	-0.00842136	-2.93458e-05	0.0595441	-7.46264e+06	-1.62385e+07	6.76656e+07	
78211	0.0619357	-1.73212	0.434917	-0.0122273	-0.00831099	0.0940535	-1.01776e+07	-9.05361e+06	9.54804e+07	
78241	0.0627621	-1.73529	0.440039	-0.0192498	-0.014558	0.159935	5.05629e+06	-1.93684e+07	3.13394e+07	
78271	0.0620994	-1.73886	0.450332	-0.0163677	-0.025598	0.177798	-4.05798e+06	-2.18621e+07	6.30288e+07	
78301	0.0616498	-1.73731	0.459286	-0.0192895	-0.0413387	0.223179	-2.75522e+06	9.45197e+06	5.48625e+07	
78331	0.0652228	-1.73737	0.465159	-0.0209426	-0.0356675	0.256097	2.1912e+07	-354893	3.60169e+07	
78361	0.0669386	-1.73717	0.465372	-0.00450858	-0.0359337	0.283109	1.0529e+07	1.24929e+06	1.30575e+06	
78391	0.0672801	-1.73207	0.468703	-0.00261336	-0.0357088	0.283344	2.09863e+06	3.13362e+07	2.04675e+07	
78421	0.0690128	-1.72983	0.475299	-0.00192081	-0.0253679	0.290099	1.06529e+07	1.37828e+07	4.05538e+07	
78481	0.0702151	-1.72594	0.482196	-0.164473	-0.00921564	-1.12345e-09	7.39834e+06	2.39062e+07	4.24444e+07	
78511	0.0767695	-1.72439	0.485774	-0.162697	-0.00347816	0.0101867	3.05576e+07	1.98472e+07	2.26569e+07	
78541	0.0767695	-1.72439	0.485774	-0.127862	0.0191477	0.0360155	3.05576e+07	1.98472e+07	2.26569e+07	
78571	0.0761087	-1.72172	0.489854	-0.117778	0.0256973	0.0434923	-4.07828e+06	1.64904e+07	2.51768e+07	
78601	0.0769985	-1.72052	0.48787	-0.11998	0.0346021	0.0570878	5.49497e+06	7.38367e+06	-1.22523e+07	
78631	0.0739617	-1.72009	0.488013	-0.116683	0.0390323	0.0497364	-1.87666e+07	2.65371e+06	884187	
78661	0.0761769	-1.71812	0.491228	-0.131884	0.0411818	0.0504526	1.36973e+07	1.21946e+07	1.98784e+07	
78691	0.0763157	-1.7214	0.490892	-0.122022	0.0499619	0.0647651	859046	-2.02801e+07	-2.07737e+06	
78721	0.0755605	-1.71856	0.49391	-0.121429	0.0359686	0.0633317	-4.67753e+06	1.75547e+07	1.86922e+07	
78751	0.0729473	-1.71639	0.494837	-0.124657	0.0480814	0.0762293	-1.61965e+07	1.34754e+07	5.74766e+06	
78781	0.0762388	-1.71968	0.493459	-0.135832	0.0573794	0.0801952	2.04161e+07	-2.0397e+07	-8.55329e+06	
78871	0.0755544	-1.71717	0.495237	-0.00455515	0.0107548	9.25623e-11	-9.69229e+06	-1.00502e+07	1.26375e+07	
78901	0.0760856	-1.71871	0.496348	-0.00629977	0.00894573	0.00227474	3.30668e+06	-9.62305e+06	6.91319e+06	
78931	0.078151	-1.7178	0.493832	-0.00550616	0.0066362	0.00393391	1.28648e+07	5.6916e+06	-1.56676e+07	
78961	0.078151	-1.7178	0.493832	0.00915967	0.0131246	-0.0139272	1.28648e+07	5.6916e+06	-1.56676e+07	
78991	0.0778401	-1.71768	0.493962	0.0180364	0.0170518	-0.0247378	-1.93836e+06	706941	810808	
79021	0.0784006	-1.71842	0.494252	0.0165826	0.017582	-0.0241297	3.4974e+06	-4.56412e+06	1.80773e+06	
79051	0.0784006	-1.71842	0.494252	0.0223533	0.0100512	-0.021147	3.4974e+06	-4.56412e+06	1.80773e+06	
79081	0.0779001	-1.71828	0.495359	0.0243468	0.0074497	-0.0201166	-3.12818e+06	882072	6.92e+06	
79111	0.0783688	-1.71828	0.495163	0.0238776	0.00758201	-0.0190786	3.34546e+06	-5.8276e+06	2.21228e+06	
79141	0.0792352	-1.71848	0.495122	0.0251823	0.00530925	-0.0182158	5.4246e+06	-1.2208e+06	-259907	
79171	0.0794922	-1.71852	0.494675	0.0269724	0.00490638	-0.0183016	1.61057e+06	-276157	-2.79899e+06	
79201	0.078393	-1.71811	0.492733	0.0275522	0.00480697	-0.0193092	-6.89339e+06	2.59052e+06	-1.21779e+07	
79231	0.0803155	-1.71704	0.492572	0.0261046	0.00535097	-0.0218666	1.20664e+07	6.70833e+06	-1.01095e+06	
79261	0.0796123	-1.71651	0.492356	0.0293626	0.00716222	-0.0221395	-4.41679e+06	3.35048e+06	-1.35697e+06	
79291	0.0796123	-1.71651	0.492356	0.0241949	0.0110823	-0.0237272	-4.41679e+06	3.35048e+06	-1.35697e+06	
79321	0.0800603	-1.71787	0.492036	0.0211473	0.0133941	-0.0246635	2.81751e+06	-8.5954e+06	-2.01122e+06	
79351	0.0802326	-1.71731	0.491809	0.0232605	0.00694757	-0.0261719	1.08423e+06	3.57336e+06	-1.4286e+06	
79381	0.0797214	-1.71881	0.49188	0.0240086	0.00941319	-0.0271576	-3.21963e+06	-9.46252e+06	446213	
79410	0.0797142	-1.71874	0.491618	0.0220768	0.00373567	-0.0268899	-45008	405891	-1.65302e+06	
79441	0.0801348	-1.71863	0.491907	0.0220431	0.00404009	-0.0281297	2.65271e+06	732766	1.82396e+06	
79471	0.0796995	-1.71861	0.492002	0.0232368	0.00436984	-0.0273089	-2.74848e+06	112414	599076	
79501	0.0798268	-1.71866	0.491929	0.0212579	0.00445078	-0.0268775	804189	-286809	-460674	
79531	0.0798268	-1.71866	0.491929	0.0225607	0.00398615	-0.0276238	804189	-286809	-460674	
79561	0.0790932	-1.71784	0.492069	0.0227295	0.00392592	-0.0277206	-4.64297e+06	5.1566e+06	886275	
79591	0.0804278	-1.71741	0.491532	0.0207795	0.00609169	-0.0273483	8.45156e+06	2.7353e+06	-3.40174e+06	
79621	0.0802192	-1.71841	0.491589	0.021033	0.00617375	-0.0274504	2.14588e+06	-2.36011e+06	-852237	
79651	0.0810679	-1.71825	0.491902	0.0213549	0.00581973	-0.0275782	5.38408e+06	993984	1.98773e+06	
79681	0.0810679	-1.71825	0.491902	0.0270082	0.00686341	-0.0254911	5.38408e+06	993984	1.98773e+06	
79711	0.0810959	-1.71818	0.491209	0.0300771	0.00742998	-0.0243581	177753	441967	-4.40389e+06	
79741	0.0804846	-1.71846	0.491023	0.0301838	0.00769516	-0.0270004	-3.88535e+06	-1.77576e+06	-1.17952e+06	
79771	0.0800932	-1.71837	0.490906	0.027736	0.00657644	-0.0277435	-2.48886e+06	585114	-748144	
79801	0.0802784	-1.71839	0.49056	0.02572	0.00705038	-0.0283495	1.17813e+06	-141645	-2.19951e+06	
79831	0.080115	-1.71831	0.490956	0.0267097	0.0069314	-0.0301971	-1.04055e+06	510293	2.51934e+06	
79861	0.0801369	-1.71821	0.490587	0.0260229	0.00726819	-0.0285344	140044	648846	-2.34805e+06	
79891	0.0804188	-1.71807	0.490454	0.0261027	0.00763803	-0.0298727	1.79841e+06	892665	-849830	
79921	0.0806623	-1.71827	0.49047	0.0271278	0.00814685	-0.0303572	1.55398e+06	-1.25711e+06	102786	
79951	0.0806623	-1.71827	0.49047	0.0294122	0.0062989	-0.0302061	1.55398e+06	-1.25711e+06	102786	
79981	0.0805917	-1.71829	0.490505	0.0303446	0.00554463	-0.0301444	-451241	-162233	222478	
80011	0.0807511	-1.71831	0.490421	0.0300061	0.00542296	-0.0299775	1.02017e+06	-93983.3	-538506	
80041	0.0807511	-1.71831	0.490421	0.0316588	0.0052707	-0.0308499	1.02017e+06	-93983.3	-538506	
80071	0.0807511	-1.71831	0.490421	0.0342602	0.00503105	-0.0322231	1.02017e+06	-93983.3	-538506	
80101	0.0819779	-1.71809	0.490812	0.0346887	0.00499157	-0.0324493	7.86827e+06	1.42188e+06	2.51065e+06	
80130	0.0811632	-1.71813	0.490939	0.0394097	0.0058447	-0.0309429	-5.22809e+06	-258066	816812	
80161	0.0811632	-1.71813	0.490939	0.0314107	0.00544986	-0.0296932	-5.22809e+06	-258066	816812	
80191	0.0817064	-1.71866	0.490771	0.0292149	0.00534147	-0.0293501	3.49175e+06	-3.41389e+06	-1.08478e+06	
80251	0.0804322	-1.71856	0.490969	-0.00685353	-0.00159079	8.27666e-11	-4.66755e+06	1.38439e+06	745700	
80281	0.0806661	-1.71795	0.491136	-0.00951404	-0.000801681	0.000425049	1.50672e+06	3.94304e+06	1.07633e+06	
80311	0.0806661	-1.71795	0.491136	-0.00729916	0.00499459	0.00200726	1.50672e+06	3.94304e+06	1.07633e+06	
80371	0.0807022	-1.71882	0.491282	-0.00610724	-0.00141756	2.7315e-10	-776614	-4.54452e+06	-49324	
80431	0.0804227	-1.71889	0.491214	-0.00572197	-0.00132815	1.16337e-10	962104	-1.59023e+06	-320061	
80491	0.0803425	-1.71879	0.491377	-0.00538795	-0.00125062	3.52334e-10	-518812	643562	1.05611e+06	
80520	0.0800721	-1.71932	0.491028	-0.00546577	-0.00115409	0.000158417	-1.75293e+06	-3.48025e+06	-2.26269e+06	
80551	0.0797481	-1.7181	0.491284	-0.00630717	-0.00282461	-0.000927673	-2.10183e+06	7.96004e+06	1.65461e+06	
80581	0.0804161	-1.719	0.491136	-0.00706383	4.10058e-05	-0.000332013	4.33616e+06	-5.86213e+06	-957918	
80611	0.0811893	-1.7185	0.491268	-0.00433205	-0.00365214	-0.000935501	5.0223e+06	3.24677e+06	860118	
80641	0.081258	-1.71912	0.491326	-0.00207202	-0.00219109	-0.000548448	446419	-4.0059e+06	375704	
80671	0.0807314	-1.71851	0.490772	-0.00181756	-0.00447445	-0.000334297	-3.42568e+06	3.9496e+06	-3.60792e+06	
80701	0.0807314	-1.71851	0.490772	-0.00685331	0.00133146	-0.00563794	-3.42568e+06	3.9496e+06	-3.60792e+06	
80731	0.080378	-1.71842	0.491152	-0.00777825	0.00239786	-0.00661208	4.06463e+06	-28039.5	84601.8	
80761	0.0807348	-1.71865	0.491398	-0.00704661	0.00239281	-0.00659685	2.32634e+06	-1.45828e+06	1.6056e+06	
80791	0.0805545	-1.71867	0.49162	-0.00662787	0.00213032	-0.00630785	-1.17653e+06	-175278	1.44774e+06	
80821	0.0805545	-1.71867	0.49162	-0.00789853	0.00194102	-0.00474429	-1.17653e+06	-175278	1.44774e+06	
80851	0.0806517	-1.71844	0.490989	-0.00800441	0.00192525	-0.00461399	-880486	2.00575e+06	-4.09588e+06	
80881	0.0806517	-1.71844	0.490989	-0.00887609	0.00391094	-0.00866891	-880486	2.00575e+06	-4.09588e+06	
80911	0.0812396	-1.71832	0.491573	-0.00940439	0.00511439	-0.0111264	3.84628e+06	788396	3.82328e+06	
80941	0.081498	-1.71782	0.491461	-0.00698123	0.00561108	-0.00871778	1.69203e+06	3.26369e+06	-732364	
80970	0.0812129	-1.71828	0.491747	-0.0061183	0.00727556	-0.00909128	-1.86802e+06	-3.04173e+06	1.87288e+06	
81001	0.0812129	-1.71828	0.491747	-0.00880824	0.00289547	-0.00639433	-1.86802e+06	-3.04173e+06	1.87288e+06	
81031	0.0805759	-1.7172	0.491103	-0.00925657	0.00216546	-0.00594484	-4.1817e+06	7.09438e+06	-4.22858e+06	
81061	0.0805169	-1.71739	0.491485	-0.0113892	0.00578359	-0.00810142	-387284	-1.26406e+06	2.50986e+06	
81091	0.0803845	-1.71762	0.491205	-0.0114589	0.00555606	-0.00764964	1.90436e+06	-2.94727e+06	-243654	
81121	0.0803845	-1.71762	0.491205	-0.00940224	0.00237301	-0.00791279	1.90436e+06	-2.94727e+06	-243654	
81181	0.0808899	-1.71785	0.491602	-0.00271139	-0.000629406	7.1369e-11	-1.99384e+06	1.10794e+06	1.43382e+06	
81211	0.0809964	-1.71757	0.491506	-0.00330954	-0.000297025	0.000430145	702115	1.89807e+06	-633261	
81241	0.0809964	-1.71757	0.491506	-0.002467	0.00198066	-0.000329768	702115	1.89807e+06	-633261	
81271	0.080699	-1.71738	0.491634	-0.0020668	0.00306256	-0.000690726	-1.96333e+06	1.23432e+06	846143	
81301	0.0805182	-1.71732	0.491464	-0.0030092	0.00365503	-0.000284577	-1.19445e+06	405890	-1.12012e+06	
81331	0.0805815	-1.71717	0.491407	-0.00390503	0.00395945	-0.00112467	418116	964243	-377163	
81361	0.0804729	-1.71709	0.491514	-0.00361653	0.00462478	-0.00138491	-718352	532076	703872	
81391	0.0808005	-1.71744	0.49136	-0.00396134	0.00488017	-0.00104705	2.16955e+06	-2.29925e+06	-1.01845e+06	
81421	0.0808005	-1.71744	0.49136	-0.000967367	0.00170721	-0.00245251	2.16955e+06	-2.29925e+06	-1.01845e+06	
81482	0.0811839	-1.7173	0.491252	-0.00200712	-0.000465939	3.83523e-10	1.01364e+06	-189970	-239677	
81541	0.0802837	-1.7183	0.491244	-0.00188995	-0.000438736	1.63065e-10	-15533.2	101582	2.31962e+06	
81571	0.0803188	-1.71811	0.490391	-0.00189228	-0.000423499	0.000347944	-2.40569e+06	-169799	-6.48246e+06	
81631	0.0807908	-1.71785	0.490901	-0.00172689	-0.000400884	2.47364e-10	3.14268e+06	1.72415e+06	3.40185e+06	
81661	0.0808064	-1.71788	0.490875	0.00110151	0.00115085	0.00306167	104007	-176991	-173530	
81691	0.0812976	-1.71787	0.490977	0.00116392	0.00104465	0.00295755	3.27674e+06	36620.6	677481	
81721	0.0807467	-1.71779	0.490734	0.00195033	0.00105344	0.00312015	-3.67877e+06	581578	-1.62436e+06	
81751	0.080988	-1.71795	0.490646	7.41639e-05	0.00135005	0.00229172	1.61206e+06	-1.09139e+06	-587825	
81781	0.0812899	-1.71784	0.491029	0.000944675	0.000760695	0.0019743	2.01855e+06	733071	2.56128e+06	
81810	0.0813111	-1.71784	0.490705	0.00197413	0.00113456	0.00328055	141460	-11912.5	-2.16856e+06	
81841	0.0813111	-1.71784	0.490705	0.00217784	0.00111741	0.000157823	141460	-11912.5	-2.16856e+06	
81871	0.0811122	-1.71793	0.490442	0.00224574	0.00111169	-0.000883088	-1.33268e+06	-569682	-1.76323e+06	
81901	0.0811944	-1.71773	0.491057	0.0021258	0.00106042	-0.00104178	1.35778e+06	-296586	685233	
81931	0.0810354	-1.71768	0.490989	0.002248	0.00103373	-0.000980107	-1.06682e+06	287839	-458402	
81961	0.0810354	-1.71768	0.490989	0.00119184	0.00131869	-0.00143393	-1.06682e+06	287839	-458402	
81991	0.0810354	-1.71768	0.490989	-0.000824454	0.0018627	-0.0023003	-1.06682e+06	287839	-458402	
82021	0.0812358	-1.71862	0.491676	-0.00149655	0.00204404	-0.0025891	1.34738e+06	-6.28873e+06	4.61777e+06	
82051	0.0813515	-1.7186	0.491373	-0.000324333	-0.00342715	0.00142836	778152	106815	-2.04047e+06	
82081	0.0813672	-1.71863	0.491465	0.000119214	-0.00336627	0.000265296	105733	-192854	621780	
82111	0.0808779	-1.71827	0.491447	0.000176309	-0.00347041	0.000601058	-3.297e+06	2.438e+06	-124000	
82141	0.0809552	-1.71834	0.49158	-0.00180189	-0.00200761	0.000526658	521293	-435297	901615	
82171	0.0808334	-1.71818	0.491761	-0.00159859	-0.00217737	0.000878287	-822488	1.01561e+06	1.22043e+06	
82201	0.0808879	-1.71864	0.491816	-0.0020674	-0.00159848	0.00157393	368172	-3.06463e+06	369550	
82261	0.0808875	-1.71867	0.491876	-0.0009183	-0.00021318	3.31075e-10	-2884.6	-208695	406353	
82291	0.0808255	-1.71807	0.491883	-0.000920896	-0.000401005	0.000365718	-419713	4.05153e+06	47945.6	
82321	0.0800215	-1.71773	0.491836	-0.000996444	0.00032827	0.000374348	584398	-979275	1.48701e+06	
82351	0.0801308	-1.71761	0.492033	-0.000891253	0.000152001	0.00064201	741199	851181	1.33387e+06	
82381	0.0801308	-1.71761	0.492033	-6.85216e-05	0.00109681	0.0021226	741199	851181	1.33387e+06	
82411	0.0801308	-1.71761	0.492033	0.00142129	0.00280769	0.00480368	741199	851181	1.33387e+06	
82441	0.0819126	-1.71913	0.491903	0.00144352	0.00283322	0.0048437	1.211e+07	-1.03943e+07	-884682	
82471	0.0804665	-1.71766	0.492214	0.00543984	-0.000596903	0.00455175	-9.83346e+06	1.00462e+07	2.11604e+06	
82501	0.0804665	-1.71766	0.492214	-0.00665532	0.01176	0.00715449	-9.83346e+06	1.00462e+07	2.11604e+06	
82531	0.0801808	-1.71635	0.492809	-0.0104904	0.015678	0.00797974	-1.94511e+06	8.87114e+06	4.05213e+06	
82561	0.081434	-1.71912	0.491295	-0.0117741	0.0215329	0.0106542	8.53783e+06	-1.88522e+07	-1.03172e+07	
82591	0.0806623	-1.72051	0.491634	-0.00998119	0.017574	0.00848754	-5.26353e+06	-9.45813e+06	2.31545e+06	
82621	0.0809961	-1.71968	0.491278	-0.0104549	0.0167227	0.00869593	2.27843e+06	5.63742e+06	-2.42953e+06	
82651	0.080705	-1.71856	0.491602	-0.0100448	0.0177375	0.00825861	-1.98809e+06	7.67721e+06	2.2122e+06	
82681	0.0802809	-1.71838	0.491821	-0.0102237	0.0184284	0.00845771	-2.89913e+06	1.23035e+06	1.49331e+06	
82711	0.0802809	-1.71838	0.491821	-0.0130939	0.0196465	0.00993609	-2.89913e+06	1.23035e+06	1.49331e+06	
82741	0.0799741	-1.71754	0.49249	-0.0143115	0.0201632	0.0105633	-2.09924e+06	5.74674e+06	4.58272e+06	
82771	0.0803449	-1.71772	0.492631	-0.015697	0.0239561	0.0135879	2.53884e+06	-1.23145e+06	961941	
82801	0.0810558	-1.71892	0.491086	-0.0141737	0.0232172	0.014165	4.8717e+06	-8.22108e+06	-1.05837e+07	
82831	0.0815873	-1.7189	0.491379	-0.0122737	0.020011	0.0100374	3.64548e+06	135360	2.00546e+06	
82861	0.0813837	-1.71769	0.491527	-0.0103052	0.0200841	0.0111203	-1.39731e+06	8.27108e+06	1.01505e+06	
82891	0.0802207	-1.71652	0.491842	-0.0111855	0.0252949	0.0117598	-7.98733e+06	8.08694e+06	2.16185e+06	
82921	0.0813707	-1.71929	0.491376	-0.0162175	0.0303896	0.0131218	7.90382e+06	-1.90429e+07	-3.19796e+06	
82951	0.0813712	-1.71931	0.491365	-0.0107639	0.01725	0.0109152	3188.89	-169394	-74492.6	
82981	0.0813712	-1.71931	0.491365	-0.0107588	0.0169807	0.0107968	3188.89	-169394	-74492.6	
83011	0.0813977	-1.71926	0.490875	-0.0107579	0.0169349	0.0107766	182219	332237	-3.38064e+06	
83042	0.0820201	-1.7173	0.492344	-0.010665	0.0171044	0.00905252	4.29028e+06	1.35556e+07	1.01281e+07	
83071	0.0818369	-1.71758	0.492732	-0.0102789	0.0183244	0.00996404	-2.20406e+06	503756	2.34369e+06	
83131	0.0823961	-1.71874	0.491551	-0.000383888	-8.91156e-05	5.88617e-11	2.56209e+06	-5.87013e+06	-3.8366e+06	
83161	0.0823961	-1.71874	0.491551	0.00222945	-0.00607664	-0.00391333	2.56209e+06	-5.87013e+06	-3.8366e+06	
83191	0.0826439	-1.71945	0.491101	0.00368984	-0.00942262	-0.0061002	1.71444e+06	-4.89006e+06	-3.11043e+06	
83221	0.0816542	-1.71788	0.491893	0.00461564	-0.0120632	-0.00777983	-6.85134e+06	1.08485e+07	5.48102e+06	
83251	0.082033	-1.71783	0.491575	0.001327	-0.00685595	-0.00514894	2.62388e+06	311489	-2.20201e+06	
83281	0.0818014	-1.71765	0.492111	0.00219288	-0.00675316	-0.0058756	-1.6057e+06	1.247e+06	3.71529e+06	
83311	0.0817469	-1.71709	0.491128	0.0013258	-0.00607978	-0.00386935	-378001	3.90264e+06	-6.81598e+06	
83341	0.0813638	-1.71691	0.491058	0.00114436	-0.00420651	-0.00714102	-2.65989e+06	1.23114e+06	-490137	
83371	0.0813638	-1.71691	0.491058	-0.00252628	-0.00250754	-0.00781741	-2.65989e+06	1.23114e+06	-490137	
83401	0.0817	-1.71744	0.490952	-0.0045212	-0.00158419	-0.00818501	2.33725e+06	-3.64326e+06	-734171	
83431	0.0820664	-1.71746	0.490929	-0.00248779	-0.00475383	-0.00882374	2.54811e+06	-184754	-160499	
83461	0.082136	-1.71755	0.49089	-0.000500262	-0.00489794	-0.00894893	484641	-613565	-269597	
83491	0.082136	-1.71755	0.49089	0.000328474	-0.00594713	-0.00940994	484641	-613565	-269597	
83521	0.082136	-1.71755	0.49089	0.00159339	-0.00754854	-0.0101136	484641	-613565	-269597	
83581	0.0824886	-1.71818	0.491436	-0.000244505	-5.67603e-05	1.47465e-10	-1.0958e+07	1.32043e+07	4.34306e+06	
83611	0.0827099	-1.71828	0.491562	-0.00517562	0.00588518	0.00195438	1.54687e+06	-718608	882446	
83641	0.0825763	-1.71824	0.491437	-0.00438672	0.00551869	0.00240442	-934206	289503	-878109	
83671	0.0826383	-1.7182	0.491477	-0.00483514	0.00565765	0.00198293	433474	295949	285305	
83701	0.0824109	-1.71747	0.491719	-0.0047311	0.00572868	0.00205141	-1.59256e+06	5.07104e+06	1.69546e+06	
83821	0.0822907	-1.7173	0.491628	-0.00019222	-4.46227e-05	3.49807e-10	76828.7	625047	-372164	
83851	0.0822897	-1.71736	0.491616	-0.000129988	0.000461666	-0.000301452	-6907.33	-430600	-86537.1	
83881	0.082872	-1.718	0.491675	-0.000130817	0.000409994	-0.000311837	1.46047e+06	-3.53059e+06	478383	
83941	0.0828675	-1.71793	0.491671	-0.000170432	-3.95649e-05	2.76535e-10	-31209.9	487866	-31862.8	
83971	0.0828675	-1.71793	0.491671	-0.000230355	0.000897139	-6.11763e-05	-31209.9	487866	-31862.8	
84031	0.0824465	-1.71748	0.490714	-0.000155728	-3.61517e-05	1.58927e-10	-1.2665e+06	6.61673e+06	-3.52309e+06	
84061	0.0824374	-1.71761	0.491509	-0.000801641	0.00333838	-0.00179678	-64588.9	-862583	5.61544e+06	
84091	0.0823998	-1.71781	0.491462	-0.000830706	0.00295022	0.000730171	-265895	-1.44223e+06	-333286	
84121	0.0823998	-1.71781	0.491462	-0.00118966	0.00100321	0.000280234	-265895	-1.44223e+06	-333286	
84151	0.0830796	-1.71869	0.490994	-0.00119764	0.00095994	0.000270236	1.33267e+06	-4.29333e+06	-2.39753e+06	
84181	0.0830796	-1.71869	0.490994	4.17413e-05	-0.00303286	-0.00195947	1.33267e+06	-4.29333e+06	-2.39753e+06	
84211	0.0827999	-1.71835	0.490337	0.000121701	-0.00329046	-0.00210332	-31961	1.77088e+06	-5.09588e+06	
84241	0.0827999	-1.71835	0.490337	9.10188e-05	-0.00159041	-0.00699536	-31961	1.77088e+06	-5.09588e+06	
84271	0.0826702	-1.71831	0.490373	6.60892e-05	-0.000209128	-0.0109701	-920291	326466	256697	
84301	0.0826257	-1.71872	0.490757	-0.000127172	-0.00014057	-0.0109162	-870886	-1.97162e+06	-1.3912e+06	
84331	0.0826257	-1.71872	0.490757	-0.00109385	-0.00232907	-0.0124605	-870886	-1.97162e+06	-1.3912e+06	
84361	0.0838539	-1.71985	0.491007	-0.00140737	-0.00303885	-0.0129613	8.73810e+06	-8.00339e+06	1.78231e+06	
84391	0.0841356	-1.72025	0.491143	0.000951915	-0.00519976	-0.0124801	2.00591e+06	-2.88753e+06	968850	
84421	0.082907	-1.71819	0.491119	0.00203511	-0.00675903	-0.0119569	-8.75253e+06	1.47091e+07	-175474	
84451	0.082907	-1.71819	0.491119	-0.0105685	0.0144221	-0.0122096	-8.75253e+06	1.47091e+07	-175474	
84481	0.082907	-1.71819	0.491119	-0.0310495	0.0488414	-0.0126202	-8.75253e+06	1.47091e+07	-175474	
84511	0.0829764	-1.71776	0.490937	-0.0360384	0.0572256	-0.0127202	495818	3.08044e+06	-1.29367e+06	
84541	0.0823053	-1.71722	0.491449	-0.0356219	0.0598132	-0.0138069	-4.79373e+06	3.82915e+06	3.65428e+06	
84631	0.0847506	-1.72059	0.492498	-8.57655e-05	-1.991e-05	1.00201e-10	-1.69948e+06	-2.90227e+06	-495755	
84661	0.0847506	-1.72059	0.492498	-0.00176825	-0.00289316	-0.000490798	-1.69948e+06	-2.90227e+06	-495755	
84691	0.0855463	-1.7208	0.492147	-0.00207415	-0.00341556	-0.000580034	1.60885e+06	1.4632e+06	2.16766e+06	
84721	0.0855463	-1.7208	0.492147	-0.000336591	-0.00183531	0.00176104	1.60885e+06	1.4632e+06	2.16766e+06	
84751	0.0844813	-1.71771	0.492576	0.000676987	-0.000913494	0.00312667	-7.64548e+06	2.21513e+07	3.07492e+06	
84780	0.0831143	-1.71775	0.491734	-0.00207539	0.00706099	0.00423364	-9.82306e+06	-232438	-6.04713e+06	
84811	0.083014	-1.71816	0.491457	-0.00737984	0.00693547	0.000968189	-721131	-3.00535e+06	-1.9913e+06	
84840	0.0830061	-1.71793	0.491311	-0.00757455	0.00612403	0.000430539	-56394.1	1.65191e+06	-1.05207e+06	
84871	0.082395	-1.7173	0.491484	-0.00759992	0.00686739	-4.28912e-05	-4.4008e+06	4.53769e+06	1.24982e+06	
84901	0.083196	-1.71863	0.490456	-0.00997635	0.00931775	0.000632009	5.77135e+06	-9.52378e+06	-7.41252e+06	
84931	0.083196	-1.71863	0.490456	-0.00166562	-0.0043965	-0.010042	5.77135e+06	-9.52378e+06	-7.41252e+06	
84961	0.0829756	-1.7185	0.491166	0.00093149	-0.0086822	-0.0133777	-1.58988e+06	937946	5.12444e+06	
84991	0.0820809	-1.71743	0.491627	0.000788401	-0.00859778	-0.0129165	-3.37066e+06	1.4544e+06	-1.68188e+06	
85051	0.0825698	-1.7177	0.49225	-5.62921e-05	-1.30678e-05	3.7021e-10	3.5342e+06	-1.9424e+06	4.50366e+06	
85081	0.0820094	-1.71747	0.492092	0.00301847	-0.00170295	0.00391818	-4.05432e+06	1.62189e+06	-1.14289e+06	
85111	0.0818801	-1.71709	0.492064	0.000707502	-0.000778477	0.00326674	-935935	2.77947e+06	-204136	
85141	0.0813274	-1.71716	0.493082	0.000230175	0.000639052	0.00316263	-4.00528e+06	-501046	7.37376e+06	
85171	0.0819716	-1.71818	0.493095	-0.00181252	0.000383518	0.00692325	4.6713e+06	-7.43061e+06	100334	
85201	0.0822352	-1.71846	0.492963	0.000289568	-0.00296026	0.0069684	1.91302e+06	-2.03618e+06	-959405	
85231	0.0814742	-1.71776	0.493212	0.0013226	-0.00405979	0.00645032	-5.52587e+06	5.13515e+06	1.80716e+06	
85261	0.0832248	-1.71971	0.490461	-0.00166137	-0.00128681	0.00742619	1.27208e+07	-1.41634e+07	-1.99898e+07	
85290	0.0822327	-1.71882	0.490596	-0.000516498	-0.00256152	0.0056271	-7.21679e+06	6.46086e+06	984077	
85321	0.0822327	-1.71882	0.490596	-0.00787762	0.00402856	0.00663086	-7.21679e+06	6.46086e+06	984077	
85351	0.0821856	-1.71918	0.490397	-0.00852714	0.00461003	0.00671943	-2.81601e+06	807412	1.39568e+06	
85381	0.0821856	-1.71918	0.490397	-0.011315	0.00540937	0.00810115	-2.81601e+06	807412	1.39568e+06	
85411	0.0823648	-1.71915	0.490056	-0.013427	0.00601493	0.0091479	1.30632e+06	179585	-2.49228e+06	
85441	0.0823648	-1.71915	0.490056	-0.0112716	0.00631124	0.00503565	1.30632e+06	179585	-2.49228e+06	
85530	0.0823958	-1.71828	0.490249	-3.46168e-05	-8.03612e-06	6.85325e-11	6.50251e+06	-2.66884e+06	-3.3621e+06	
85561	0.0817873	-1.71788	0.490317	0.00269644	-0.00112895	-0.00141208	-4.45322e+06	2.97107e+06	501694	
85590	0.0824253	-1.71873	0.493639	0.00109328	-5.93618e-05	-0.00123147	4.67263e+06	-6.2779e+06	2.43246e+07	
85621	0.0830942	-1.71868	0.493446	0.00319596	-0.00288442	0.00971458	4.90187e+06	430617	-1.41174e+06	
85651	0.0827358	-1.71889	0.493612	0.00569592	-0.0026648	0.00899459	-2.6279e+06	-1.60281e+06	1.22061e+06	
85681	0.0822429	-1.71874	0.491033	0.00553824	-0.00276097	0.00906783	-3.61836e+06	1.10452e+06	-1.89359e+07	
85710	0.0822429	-1.71874	0.491033	0.00217317	-0.00173376	-0.00854257	-3.61836e+06	1.10452e+06	-1.89359e+07	
85741	0.0821114	-1.71864	0.490756	-0.0009748	-0.000772831	-0.0250168	-966248	763078	-2.03578e+06	
85771	0.0816399	-1.71861	0.490277	-0.00100379	-0.000749938	-0.0250779	532968	-2.06856e+06	-2.53385e+06	
85801	0.0816399	-1.71861	0.490277	-0.000508128	-0.0026737	-0.0274344	532968	-2.06856e+06	-2.53385e+06	
85831	0.080815	-1.71713	0.491009	-9.24133e-05	-0.00428717	-0.0294108	-6.07322e+06	1.09434e+07	5.38756e+06	
85861	0.080978	-1.71772	0.490889	-0.0010034	-0.00264567	-0.0286026	1.20131e+06	-4.36089e+06	-882952	
85891	0.0809955	-1.71767	0.490991	-0.000498847	-0.00447724	-0.0289735	129197	389575	752066	
85920	0.0809955	-1.71767	0.490991	-0.000332182	-0.00397469	-0.0280033	129197	389575	752066	
85951	0.0809955	-1.71767	0.490991	-4.53644e-05	-0.00310983	-0.0263337	129197	389575	752066	
85981	0.0810173	-1.71763	0.491317	-2.72933e-06	-0.00298127	-0.0260855	4.03977e+06	-4.44596e+06	-2.22819e+06	
86011	0.0815376	-1.71858	0.491213	0.0013304	-0.00444844	-0.0268208	3.84793e+06	-7.06428e+06	-773702	
86041	0.0815376	-1.71858	0.491213	0.00606335	-0.0131375	-0.0277725	3.84793e+06	-7.06428e+06	-773702	
86071	0.0819436	-1.7183	0.491153	0.00779492	-0.0163164	-0.0281207	3.00688e+06	2.10765e+06	-442299	
86101	0.0814276	-1.71836	0.491359	0.0101403	-0.0146725	-0.0284656	-3.82304e+06	-414460	1.52289e+06	
86191	0.0812502	-1.71875	0.491616	-1.79511e-05	-4.16714e-06	2.48761e-10	-1.10126e+06	-128880	-63889.1	
86221	0.0808423	-1.7174	0.491709	-0.000579594	-6.98959e-05	-3.25832e-05	-3.03149e+06	1.00397e+07	692748	
86251	0.0811078	-1.71779	0.491637	-0.00203471	0.00474918	0.000299936	1.97477e+06	-2.9374e+06	-536555	
86281	0.0804967	-1.71709	0.491607	-0.00138304	0.00377984	0.000122872	-4.54827e+06	5.21143e+06	-226944	
86311	0.0808919	-1.71732	0.491442	-0.00356621	0.00628133	1.39392e-05	2.94301e+06	-1.67517e+06	-1.2282e+06	
86341	0.0814073	-1.71785	0.490803	-0.0027716	0.00582903	-0.000317674	3.84141e+06	-3.95152e+06	-4.75996e+06	
86371	0.0823456	-1.7191	0.490489	-0.00138869	0.00440648	-0.00203126	6.99785e+06	-9.30013e+06	-2.34384e+06	
86401	0.0823456	-1.7191	0.490489	0.00742861	-0.00731168	-0.00498451	6.99785e+06	-9.30013e+06	-2.34384e+06	
86431	0.0823456	-1.7191	0.490489	0.022544	-0.0274	-0.0100472	6.99785e+06	-9.30013e+06	-2.34384e+06	
86461	0.0811565	-1.71896	0.489263	0.0238036	-0.029074	-0.0104691	-7.73509e+06	-1.08358e+06	-2.00108e+06	
86491	0.0809932	-1.71885	0.4892	0.0200907	-0.0295941	-0.0114296	-1.22119e+06	879918	-464925	
86521	0.0803693	-1.71804	0.489596	0.0191016	-0.0288814	-0.0118062	-4.66788e+06	6.00339e+06	2.96006e+06	
86551	0.0815523	-1.71895	0.488846	0.0158807	-0.024739	-0.00976377	8.85739e+06	-6.76134e+06	-5.61538e+06	
86581	0.0816534	-1.71894	0.488741	0.0230552	-0.0302157	-0.0143122	757370	78926	-787593	
86611	0.0822067	-1.7185	0.489404	0.0232143	-0.0301991	-0.0144776	4.15008e+06	3.2475e+06	4.97391e+06	
86641	0.0822047	-1.71878	0.490413	0.0250818	-0.0287378	-0.0122394	-15101.6	-2.05883e+06	7.57142e+06	
86671	0.0815718	-1.71829	0.490356	0.025075	-0.0296642	-0.00883222	-4.75272e+06	3.67816e+06	-427874	
86701	0.082121	-1.71823	0.490292	0.0226511	-0.0277884	-0.00905044	4.12694e+06	440416	-482506	
86731	0.0819032	-1.7184	0.489995	0.0231464	-0.0277355	-0.00910834	-1.63855e+06	-1.2489e+06	-2.23523e+06	
86761	0.0807697	-1.71826	0.48925	0.0224582	-0.0282601	-0.0100471	-8.5292e+06	1.03732e+06	-5.60057e+06	
86821	0.0808204	-1.7185	0.489748	-9.54507e-06	-2.21557e-06	3.80428e-10	381539	-1.84748e+06	3.74889e+06	
86851	0.0811226	-1.71822	0.489507	0.000196486	-0.000999855	0.0020244	2.27853e+06	2.14812e+06	-1.81583e+06	
86881	0.0809281	-1.71815	0.490193	0.00211045	0.000804566	0.000499101	-1.46653e+06	504817	5.16962e+06	
86911	0.0809281	-1.71815	0.490193	-0.000441309	0.00168295	0.00949423	-1.46653e+06	504817	5.16962e+06	
86940	0.0813118	-1.71799	0.490352	-0.00101326	0.00187983	0.0115104	2.89875e+06	1.25466e+06	1.20477e+06	
86971	0.0828955	-1.72044	0.489793	0.00107384	0.00278318	0.0123778	1.19729e+07	-1.85751e+07	-4.22424e+06	
87001	0.0834453	-1.72086	0.4892	0.0104127	-0.0117054	0.00908291	4.15856e+06	-3.14966e+06	-4.48934e+06	
87031	0.0832418	-1.72073	0.489342	0.0120345	-0.0129338	0.00733207	-1.54079e+06	1.00673e+06	1.07499e+06	
87061	0.0827734	-1.71986	0.489546	0.0114336	-0.0125411	0.00775131	-3.54911e+06	6.54602e+06	1.54656e+06	
87091	0.0824391	-1.72014	0.489127	0.0101559	-0.0101846	0.00830808	-2.5352e+06	-2.10405e+06	-3.17858e+06	
87121	0.0825666	-1.72039	0.488585	0.00909116	-0.0110683	0.00697307	967838	-1.87572e+06	-4.10948e+06	
87151	0.0838922	-1.72173	0.4881	0.00952668	-0.0119123	0.00512381	1.00646e+07	-1.01893e+07	-3.67987e+06	
87181	0.0843546	-1.72178	0.488482	0.0101306	-0.0125237	0.00490301	3.51434e+06	-400350	2.90085e+06	
87210	0.0843546	-1.72178	0.488482	0.0133989	-0.012896	0.0076008	3.51434e+06	-400350	2.90085e+06	
87241	0.0845532	-1.72292	0.488356	0.0154021	-0.0131242	0.00925428	1.51098e+06	-8.65045e+06	-960659	
87271	0.0849112	-1.72333	0.487882	0.016762	-0.0209096	0.00838969	2.72442e+06	-3.1012e+06	-3.60376e+06	
87301	0.0836035	-1.72204	0.48852	0.0187235	-0.0231425	0.00579498	-9.96062e+06	9.81764e+06	4.854e+06	
87331	0.0834961	-1.72061	0.489638	0.0187235	-0.0231425	0.00579498	975510	6.77199e+06	6.12636e+06	
87361	0.0834961	-1.72061	0.489638	0.0196015	-0.0170477	0.0113087	975510	6.77199e+06	6.12636e+06	
87391	0.0834961	-1.72061	0.489638	0.0213574	-0.00485812	0.0223362	975510	6.77199e+06	6.12636e+06	
87421	0.0834961	-1.72061	0.489638	0.0239913	0.0134262	0.0388773	975510	6.77199e+06	6.12636e+06	
87481	0.0823088	-1.72176	0.492021	-4.92534e-06	-1.14328e-06	1.46828e-10	-1.17979e+07	-8.84803e+06	1.6684e+07	
87511	0.0828032	-1.72097	0.491912	-0.00496006	-0.00371731	0.00700728	3.78526e+06	6.09004e+06	-828988	
87541	0.0833008	-1.72117	0.492587	-0.0040516	-0.00225571	0.00680832	3.81225e+06	-1.57009e+06	5.17016e+06	
87571	0.0826678	-1.72005	0.493396	-0.00359413	-0.00244412	0.00742874	-4.85332e+06	8.62458e+06	6.2056e+06	
87601	0.0826678	-1.72005	0.493396	-0.00854451	0.00635295	0.0137585	-4.85332e+06	8.62458e+06	6.2056e+06	
87631	0.0835519	-1.72074	0.490147	-0.0124757	0.0133389	0.018785	6.78478e+06	-5.32147e+06	-2.49379e+07	
87661	0.0840462	-1.72094	0.490777	-0.00677648	0.00886883	-0.00216285	3.79611e+06	-1.51557e+06	4.83528e+06	
87691	0.0814272	-1.71852	0.490009	-0.00381551	0.00768669	0.00160867	-2.0128e+07	1.85935e+07	-5.90219e+06	
87721	0.0797356	-1.71785	0.490056	-0.0201192	0.0227474	-0.00317211	-1.30089e+07	5.14298e+06	365440	
87751	0.080131	-1.7176	0.490223	-0.0302661	0.0267589	-0.00288706	3.04321e+06	1.95496e+06	1.28466e+06	
87781	0.0801482	-1.71732	0.489965	-0.0279837	0.0282252	-0.00192357	132270	2.14261e+06	-1.98463e+06	
87811	0.0798653	-1.71771	0.49038	-0.0279559	0.0286751	-0.00234034	-2.18056e+06	-3.00408e+06	3.19855e+06	
87841	0.0792988	-1.71687	0.49043	-0.0285447	0.027864	-0.00147673	-4.37048e+06	6.43896e+06	386910	
87871	0.0792988	-1.71687	0.49043	-0.0336581	0.0353976	-0.00102405	-4.37048e+06	6.43896e+06	386910	
87931	0.0784945	-1.7165	0.491091	-3.16865e-06	-7.35284e-07	1.44102e-10	-1.60526e+06	-1.2709e+06	14051.1	
87961	0.0787181	-1.71656	0.491045	-0.000966326	-0.000763278	8.43078e-06	1.72986e+06	-479675	-357461	
87991	0.0795415	-1.71763	0.490957	0.000382962	-0.00113742	-0.000270389	6.37071e+06	-8.2657e+06	-678570	
88021	0.0798171	-1.71833	0.490047	0.00458763	-0.00659279	-0.000718245	2.13452e+06	-5.40289e+06	-7.0515e+06	
88050	0.0781994	-1.71734	0.489774	0.00644467	-0.0112933	-0.00685305	-1.25333e+07	7.70486e+06	-2.11476e+06	
88081	0.0792474	-1.71829	0.489382	-0.00295528	-0.00551465	-0.00843912	8.12569e+06	-7.38538e+06	-3.03947e+06	
88110	0.0793647	-1.71666	0.489479	0.00338276	-0.0112753	-0.0108099	910520	1.26238e+07	753802	
88141	0.080558	-1.71889	0.488752	0.00398371	-0.00294354	-0.0103124	9.26583e+06	-1.73417e+07	-5.64289e+06	
88171	0.0795238	-1.71735	0.489601	0.00565155	-0.00606505	-0.0113281	-8.03906e+06	1.20069e+07	6.59284e+06	
88201	0.0791942	-1.71713	0.489507	0.00348101	-0.00282318	-0.00954805	-2.56392e+06	1.70462e+06	-728819	
88231	0.0800576	-1.71832	0.489197	0.00278875	-0.00236294	-0.00974483	6.71996e+06	-9.2299e+06	-2.40853e+06	
88261	0.0789424	-1.71685	0.490069	0.00460314	-0.00485501	-0.0103951	-8.68564e+06	1.14505e+07	6.78701e+06	
88291	0.0787793	-1.71677	0.490144	0.00251858	-0.0021069	-0.00876625	-1.27098e+06	592123	588364	
88351	0.0790646	-1.71771	0.489966	-2.05849e-06	-4.77697e-07	3.11891e-10	2.2257e+06	-7.34309e+06	-1.39159e+06	
88381	0.0790646	-1.71771	0.489966	0.0040042	-0.013218	-0.00250486	2.2257e+06	-7.34309e+06	-1.39159e+06	
88411	0.0796677	-1.71971	0.490383	0.00480545	-0.0158616	-0.00300583	4.71248e+06	-1.55899e+07	3.25538e+06	
88441	0.0803054	-1.71919	0.490115	0.00777432	-0.0256832	-0.000954936	4.98603e+06	4.03941e+06	-2.09018e+06	
88471	0.0796389	-1.71821	0.490473	0.011813	-0.0224113	-0.00264798	-5.21406e+06	7.67695e+06	2.79819e+06	
88501	0.0802723	-1.71896	0.489977	0.0102488	-0.0201082	-0.00180852	4.95991e+06	-5.86318e+06	-3.88003e+06	
88531	0.0802955	-1.7193	0.489949	0.0129271	-0.0232743	-0.00390374	182371	-2.71449e+06	-219717	
88560	0.0805998	-1.71949	0.49023	0.0129654	-0.0238443	-0.00394988	2.38591e+06	-1.46727e+06	2.19799e+06	
88591	0.0807827	-1.7194	0.490188	0.0135381	-0.0241965	-0.00342236	1.43522e+06	739371	-328350	
88621	0.0808638	-1.71945	0.49041	0.0141408	-0.023886	-0.00356027	636815	-420563	1.74633e+06	
88651	0.080857	-1.71946	0.490396	0.0144274	-0.0240752	-0.00277442	-53624.8	-101421	-108707	
88680	0.08025	-1.72019	0.4902	0.0144065	-0.0241148	-0.00281682	-4.77201e+06	-5.73137e+06	-1.54046e+06	
88711	0.0799835	-1.72003	0.490597	0.0132612	-0.0254903	-0.00318653	-2.0973e+06	1.29128e+06	3.1202e+06	
88741	0.0799835	-1.72003	0.490597	0.0108703	-0.0240182	0.000370496	-2.0973e+06	1.29128e+06	3.1202e+06	
88771	0.0799881	-1.71999	0.490416	0.00923439	-0.023011	0.00280425	36811.7	327215	-1.42426e+06	
88801	0.079896	-1.72011	0.489241	0.009262	-0.0227656	0.00173605	-725858	-970637	-9.26169e+06	
88831	0.0795541	-1.71964	0.489554	0.00891359	-0.0232315	-0.00270956	-2.69713e+06	3.72561e+06	2.4694e+06	
88861	0.0795541	-1.71964	0.489554	0.00519155	-0.0180902	0.000698212	-2.69713e+06	3.72561e+06	2.4694e+06	
88891	0.0806631	-1.72028	0.489065	0.00413967	-0.0166372	0.00166128	8.76007e+06	-5.08119e+06	-3.86012e+06	
88951	0.080722	-1.71996	0.489547	-1.12818e-06	-2.61827e-07	8.08535e-11	858209	-4695.28	1.93886e+06	
89011	0.0804972	-1.71947	0.488874	-1.06226e-06	-2.4652e-07	9.13639e-11	-2.52583e+06	3.69648e+06	-4.60826e+06	
89041	0.0804125	-1.71993	0.489211	-0.000531487	0.000776014	-0.000967734	-671124	-3.60991e+06	2.66656e+06	
89071	0.0804323	-1.72024	0.489284	-0.000672423	1.79332e-05	-0.000407757	157209	-2.44119e+06	584402	
89101	0.0799364	-1.71994	0.488857	-0.000615827	-0.000860894	-0.000197373	-3.93596e+06	2.35187e+06	-3.38943e+06	
89131	0.0799364	-1.71994	0.488857	-0.00557513	0.00210247	-0.00446805	-3.93596e+06	2.35187e+06	-3.38943e+06	
89161	0.0798067	-1.72068	0.489286	-0.00663784	0.00273747	-0.0053832	-1.03114e+06	-5.91808e+06	3.4072e+06	
89191	0.0796951	-1.72012	0.488598	-0.00719466	-0.000458288	-0.00354331	-887009	4.46248e+06	-5.47131e+06	
89221	0.079651	-1.7201	0.488639	-0.0078333	0.00275469	-0.00748266	-350922	178265	327310	
89251	0.0798215	-1.72024	0.48926	-0.00808597	0.00288305	-0.00724699	1.35723e+06	-1.1341e+06	4.94692e+06	
89281	0.0798397	-1.71978	0.489445	-0.00714948	0.00210052	-0.00383362	145038	3.71203e+06	1.47033e+06	
89341	0.0799964	-1.71996	0.489156	-7.7026e-07	-1.78432e-07	3.05405e-10	1.24985e+06	-1.45571e+06	-2.3022e+06	
89371	0.0799964	-1.71996	0.489156	0.00236145	-0.00275146	-0.00435117	1.24985e+06	-1.45571e+06	-2.3022e+06	
89401	0.0800111	-1.72033	0.489712	0.00307386	-0.00358121	-0.00566342	117805	-2.95891e+06	4.43867e+06	
89431	0.0801833	-1.72069	0.489601	0.00309153	-0.00402505	-0.00499762	459522	-791482	593315	
89461	0.0802099	-1.72066	0.489597	0.0032156	-0.00423875	-0.00483743	213124	244588	-31464	
89491	0.0802099	-1.72066	0.489597	0.00346496	-0.00395258	-0.00487424	213124	244588	-31464	
89521	0.080199	-1.72062	0.489581	0.00354168	-0.00386453	-0.00488557	-87825.1	298397	-122747	
89551	0.0799621	-1.72046	0.489127	0.00348108	-0.00365864	-0.00497026	-1.89811e+06	1.27259e+06	-3.64324e+06	
89581	0.0804307	-1.72065	0.489808	0.00211444	-0.00274237	-0.0075934	3.75784e+06	-1.54119e+06	5.46141e+06	
89611	0.0801561	-1.72059	0.489616	0.00493283	-0.00389826	-0.00349734	-2.20365e+06	514460	-1.53504e+06	
89642	0.0804813	-1.72072	0.489891	0.0040734	-0.00369763	-0.00409601	2.61234e+06	-1.07161e+06	2.20996e+06	
89671	0.0800598	-1.72052	0.489739	0.00430851	-0.00379407	-0.00389711	-3.38904e+06	1.62972e+06	-1.22855e+06	
89701	0.0801754	-1.72047	0.489774	0.0040035	-0.00364739	-0.00400768	930017	365321	285631	
89761	0.0803221	-1.721	0.489683	-5.05259e-07	-1.16977e-07	4.59435e-10	1.18106e+06	-4.25122e+06	-738200	
89791	0.0801676	-1.72028	0.489478	0.000318381	-0.00114795	-0.000199314	2.55269e+06	669814	-288259	
89821	0.0801676	-1.72028	0.489478	0.00330503	-0.000364264	-0.000536577	2.55269e+06	669814	-288259	
89851	0.0801676	-1.72028	0.489478	0.00858911	0.00102225	-0.00113327	2.55269e+06	669814	-288259	
89881	0.0807562	-1.72039	0.489818	0.00881885	0.00108253	-0.00115922	1.25424e+06	-208566	-1.40692e+06	
89911	0.0803987	-1.72046	0.490061	0.00927038	0.00100745	-0.00166571	-2.88944e+06	-525257	1.96252e+06	
89941	0.0805652	-1.72072	0.490043	0.00745004	0.000676539	-0.000429323	1.34675e+06	-2.1476e+06	-148472	
89971	0.0805364	-1.72069	0.490175	0.00805607	-0.000289881	-0.000496136	-232868	296582	1.06926e+06	
90001	0.0806352	-1.72075	0.490084	0.00788841	-7.63417e-05	0.000273729	799914	-505746	-732191	
90031	0.0802783	-1.72069	0.490057	0.00834436	-0.000364617	-0.00014362	-2.89227e+06	521769	-223315	
90061	0.0804293	-1.72079	0.489582	0.00626192	1.10565e-05	-0.000304407	1.22425e+06	-815567	-3.84567e+06	
90122	0.0801248	-1.72143	0.489154	-3.50774e-07	-8.1283e-08	9.63319e-11	-3.65509e+06	-3.6389e+06	-1.8577e+06	
90151	0.0806192	-1.72113	0.489898	-0.000329309	-0.000327582	-0.000167193	4.01773e+06	2.43344e+06	6.04622e+06	
90181	0.0805805	-1.72114	0.489898	0.000634946	0.000256444	0.0012839	-315057	-77218.4	1508.17	
90211	0.0805805	-1.72114	0.489898	0.000587687	0.000244862	0.00128413	-5.50841e-08	5.59333e-07	-2.18572e-07	
90241	0.0801389	-1.72153	0.489422	0.000587687	0.000244862	0.00128413	-3.5959e+06	-3.18616e+06	-3.87728e+06	
90271	0.0801389	-1.72153	0.489422	-0.00308014	-0.00300502	-0.00267069	-3.5959e+06	-3.18616e+06	-3.87728e+06	
90301	0.0805425	-1.72086	0.48996	-0.00491405	-0.00462996	-0.00464811	3.29032e+06	5.42828e+06	4.38719e+06	
90332	0.0805425	-1.72086	0.48996	-0.000274696	0.00302391	0.00153784	3.29032e+06	5.42828e+06	4.38719e+06	
90361	0.0806855	-1.7209	0.489547	0.000712399	0.0046524	0.00285399	1.16709e+06	-296770	-3.37409e+06	
90391	0.0801711	-1.72091	0.489663	0.00141266	0.00447434	0.00082954	-4.20092e+06	-86040.8	950690	
90421	0.0801991	-1.72078	0.489392	0.000278405	0.00445111	0.00108623	228639	1.03585e+06	-2.22029e+06	
90451	0.0801991	-1.72078	0.489392	0.000545914	0.00566305	-0.00151151	228639	1.03585e+06	-2.22029e+06	
90541	0.0796893	-1.72036	0.489428	-2.30248e-07	-5.33882e-08	5.45986e-11	32003.1	40136.9	2.38936e+06	
90571	0.0797383	-1.72039	0.489386	9.37069e-06	1.19877e-05	0.000716809	402124	-203229	-350175	
90600	0.0797383	-1.72039	0.489386	0.000479855	-0.000225791	0.000307104	402124	-203229	-350175	
90661	0.0797704	-1.72039	0.489498	-2.03508e-07	-4.70444e-08	2.71499e-10	951154	-482623	-318092	
90691	0.0797524	-1.72042	0.489488	0.000484885	-0.000246185	-0.000162227	-147999	-211057	-85093.7	
90721	0.0796562	-1.72042	0.489461	0.000436045	-0.000315833	-0.000190308	-791405	3662.85	-220992	
90751	0.0799814	-1.72079	0.489355	0.000151139	-0.000314515	-0.000269865	2.67765e+06	-3.05799e+06	-875065	
90780	0.0799814	-1.72079	0.489355	0.00175773	-0.00214931	-0.000794904	3.75659e-08	-6.63572e-07	6.07307e-08	
90811	0.0799814	-1.72079	0.489355	0.00175773	-0.00214931	-0.000794904	3.75659e-08	-6.63572e-07	6.07307e-08	
90841	0.0796347	-1.72029	0.489452	0.00175773	-0.00214931	-0.000794904	-2.86151e+06	4.08573e+06	800739	
90871	0.0790724	-1.72	0.489614	0.000727588	-0.000678449	-0.000506638	-4.64193e+06	2.41196e+06	1.33674e+06	
90901	0.079684	-1.72044	0.489693	-0.00191831	0.000696366	0.000255306	5.05224e+06	-3.58974e+06	659058	
90931	0.079651	-1.7204	0.489454	0.00232557	-0.00231901	0.000808915	-273432	308990	-1.98023e+06	
90961	0.0797811	-1.72035	0.489687	0.00227636	-0.0022634	0.000452472	442610	495932	-250421	
91021	0.079917	-1.72023	0.489481	-1.42298e-07	-3.27262e-08	3.26018e-10	1.12546e+06	932308	-1.70278e+06	
91051	0.0799647	-1.72051	0.4896	0.000843956	0.000699198	-0.00127709	395275	-2.29911e+06	982041	
91081	0.0798633	-1.72019	0.489575	0.000974397	-5.95087e-05	-0.000953013	-841234	2.67792e+06	-203059	
91111	0.0797704	-1.7204	0.489614	0.000469657	0.00154724	-0.00107485	-770518	-1.75943e+06	326583	
91141	0.0795919	-1.72035	0.489756	0.000307848	0.00117776	-0.00100627	-1.48303e+06	411619	1.17755e+06	
91171	0.0796456	-1.72043	0.489987	-0.000359515	0.00136299	-0.000476369	446341	-628823	1.91976e+06	
91201	0.079821	-1.72051	0.489857	-3.81496e-05	0.000910239	0.000905858	1.45852e+06	-675988	-1.08059e+06	
91231	0.079821	-1.72051	0.489857	0.00232466	-0.000184862	-0.000844704	1.45852e+06	-675988	-1.08059e+06	
91261	0.0792653	-1.72031	0.489442	0.00249968	-0.00026598	-0.000974375	-4.18994e+06	921847	-4.2206e+06	
91291	0.0792653	-1.72031	0.489442	-0.00177406	0.000674304	-0.00527939	-4.18994e+06	921847	-4.2206e+06	
91321	0.0792653	-1.72031	0.489442	-0.00981874	0.00244425	-0.0133829	-4.18994e+06	921847	-4.2206e+06	
91381	0.0798993	-1.72033	0.488831	-9.90734e-08	-2.29015e-08	1.03583e-10	-412387	-222995	-828180	
91411	0.0798993	-1.72033	0.488831	-0.00047022	-0.000254238	-0.000944125	-412387	-222995	-828180	
91441	0.079921	-1.72032	0.488968	-0.000643422	-0.000347896	-0.00129196	181243	70698.7	1.1411e+06	
91471	0.0798926	-1.72035	0.488832	-0.000540114	-0.000307598	-0.000641533	-236877	-230827	-1.138e+06	
91501	0.0801285	-1.72036	0.488674	-0.000653815	-0.000418395	-0.00118777	1.97416e+06	-91900.8	-1.32107e+06	
91531	0.0801379	-1.72038	0.488736	0.000353006	-0.000465264	-0.00186152	78910.8	-119298	520376	
91561	0.0801329	-1.72038	0.488734	0.000416924	-0.000561896	-0.00144002	-42269.9	-47242.9	-14608	
91591	0.0799395	-1.7205	0.488679	0.000399171	-0.000581738	-0.00144615	-1.62192e+06	-973122	-466028	
91621	0.0799395	-1.7205	0.488679	-0.00174177	-0.00186626	-0.00206131	-1.62192e+06	-973122	-466028	
91651	0.0799696	-1.72048	0.48898	-0.00203371	-0.00204142	-0.0021452	-439070	208124	386961	
91741	0.0801746	-1.7201	0.489052	-6.94663e-08	-1.59912e-08	6.35765e-11	-1.88094e+06	1.03022e+06	1.27186e+06	
91771	0.0801746	-1.7201	0.489052	-0.00191862	0.00105081	0.00129729	-1.88094e+06	1.03022e+06	1.27186e+06	
91800	0.0801746	-1.7201	0.489052	-0.00547359	0.00299793	0.0037011	-1.88094e+06	1.03022e+06	1.27186e+06	
91831	0.0797418	-1.72069	0.488593	-0.00637644	0.00349244	0.00431159	-3.64795e+06	-4.90094e+06	-3.86521e+06	
91861	0.0797109	-1.72018	0.488999	-0.00692363	0.00275729	0.00373181	-2.22777e+06	1.81539e+06	1.79442e+06	
91891	0.0798296	-1.72068	0.488752	-0.0078593	0.00351976	0.00448547	1.00174e+06	-4.14976e+06	-2.08709e+06	
91921	0.0801285	-1.7208	0.488731	-0.0072282	0.000905413	0.0031706	2.52456e+06	-1.08777e+06	-177954	
91951	0.0801409	-1.72084	0.488433	-0.00631936	0.000513814	0.00310653	104887	-343667	-2.51949e+06	
91981	0.0795615	-1.72043	0.488299	-0.00631306	0.000493194	0.00295537	-4.9023e+06	3.53507e+06	-1.13641e+06	
92011	0.0802876	-1.7211	0.488645	-0.00704841	0.00102345	0.0027849	6.14643e+06	-5.66872e+06	2.93422e+06	
92041	0.0802876	-1.7211	0.488645	-0.000594657	-0.00492871	0.00586584	6.14643e+06	-5.66872e+06	2.93422e+06	
92101	0.0800769	-1.72099	0.488438	-4.83783e-08	-1.10408e-08	9.13938e-11	837151	-3.39423e+06	-2.1656e+06	
92131	0.0800752	-1.72102	0.488441	7.52952e-05	-0.000305491	-0.000194904	-13696.2	-216620	23299.3	
92161	0.0800752	-1.72102	0.488441	6.1736e-05	-0.000519946	-0.000171837	-13696.2	-216620	23299.3	
92191	0.0800535	-1.72085	0.488397	5.06421e-05	-0.000695408	-0.000152965	-184492	1.47467e+06	-372135	
92221	0.0798672	-1.7209	0.488647	-6.55878e-05	0.000233637	-0.00038741	-1.58399e+06	-480590	2.1267e+06	
92251	0.0802182	-1.72114	0.4885	-0.000825903	2.95373e-06	0.000633408	2.9864e+06	-1.99072e+06	-1.24657e+06	
92281	0.0802182	-1.72114	0.4885	0.00329533	-0.00274424	-0.00108686	2.9864e+06	-1.99072e+06	-1.24657e+06	
92311	0.0802182	-1.72114	0.4885	0.0101043	-0.00728309	-0.00392903	2.9864e+06	-1.99072e+06	-1.24657e+06	
92341	0.0802182	-1.72114	0.4885	0.0196011	-0.0136136	-0.00789312	2.9864e+06	-1.99072e+06	-1.24657e+06	
92371	0.0802182	-1.72114	0.4885	0.0317856	-0.0217357	-0.0129791	2.9864e+06	-1.99072e+06	-1.24657e+06	
92401	0.0798115	-1.72079	0.489296	0.0325919	-0.0222732	-0.0133157	-19870.6	-70932.4	2.48358e+06	
92431	0.0799634	-1.72083	0.488662	0.0325818	-0.0223094	-0.0120491	1.29751e+06	-353564	-5.4156e+06	
92461	0.0797948	-1.72027	0.48908	0.0328153	-0.0223731	-0.0130239	1.30262e+06	2.42641e+06	718219	
92491	0.0797948	-1.72027	0.48908	0.0342222	-0.0197525	-0.0122482	1.30262e+06	2.42641e+06	718219	
92521	0.0800144	-1.72045	0.48896	0.0350819	-0.0181511	-0.0117742	1.87883e+06	-1.57555e+06	-1.01884e+06	
92551	0.0796531	-1.72063	0.489268	0.0362656	-0.0191437	-0.012416	-3.09383e+06	-1.50674e+06	2.63171e+06	
92581	0.0796995	-1.72065	0.489227	0.0334811	-0.0204998	-0.0100475	397668	-205904	-351753	
92611	0.0797669	-1.72061	0.489441	0.0335885	-0.0205554	-0.0101425	577835	351186	1.83673e+06	
92641	0.0797583	-1.72063	0.489411	0.0339005	-0.0203657	-0.00915065	-73833.5	-183311	-255235	
92671	0.079865	-1.72073	0.489049	0.0338651	-0.0204537	-0.00927316	916630	-799991	-3.11207e+06	
92701	0.079865	-1.72073	0.489049	0.0351025	-0.0215337	-0.0134745	916630	-799991	-3.11207e+06	
92731	0.079865	-1.72073	0.489049	0.0371924	-0.0233577	-0.02057	916630	-799991	-3.11207e+06	
92761	0.0798751	-1.72078	0.489194	0.0376049	-0.0237177	-0.0219704	86713.7	-439073	1.24957e+06	
92821	0.0800828	-1.72108	0.488983	-2.28429e-08	-5.0536e-09	3.42689e-10	55412.9	-93259.7	173425	
92850	0.0800828	-1.72108	0.488983	0.000103045	-0.000173468	0.00032257	55412.9	-93259.7	173425	
92881	0.0799725	-1.72101	0.488421	0.000127981	-0.000215435	0.000400612	-950482	616805	-4.84838e+06	
92911	0.0800478	-1.72122	0.488951	9.94665e-05	-0.000196931	0.00025516	194936	-1.73945e+06	4.71592e+06	
92941	0.0800478	-1.72122	0.488951	0.000280757	-0.00181462	0.00464097	194936	-1.73945e+06	4.71592e+06	
92971	0.0799525	-1.72121	0.489168	0.000380174	-0.00270174	0.00704609	-823513	91029.5	1.87252e+06	
93001	0.0795202	-1.72055	0.488843	-0.000138639	-0.00264439	0.00822578	-3.73734e+06	5.72396e+06	-2.81323e+06	
93032	0.0796184	-1.72069	0.488957	-0.00215681	0.000446544	0.00670663	849350	-1.20029e+06	994252	
93061	0.0795457	-1.7206	0.48892	-0.00182556	-2.15697e-05	0.00709439	-629342	786236	-322139	
93090	0.0798075	-1.7207	0.488929	-0.00218428	0.000426585	0.00691077	2.26781e+06	-926727	79690.8	
93121	0.0799104	-1.72099	0.488751	-0.00116377	9.55805e-06	0.00694663	892051	-2.51086e+06	-1.54742e+06	
93151	0.0799104	-1.72099	0.488751	4.05008e-05	-0.00338011	0.00485761	892051	-2.51086e+06	-1.54742e+06	
93241	0.079535	-1.72034	0.488499	-1.55309e-08	-3.36706e-09	1.20148e-10	2.11467e+06	-1.65755e+06	-426965	
93271	0.079535	-1.72034	0.488499	0.00215695	-0.00169071	-0.000435504	2.11467e+06	-1.65755e+06	-426965	
93301	0.0792577	-1.72003	0.488797	0.00291823	-0.00228743	-0.000589212	-2.4134e+06	2.70412e+06	2.59015e+06	
93331	0.0792577	-1.72003	0.488797	-0.000122652	0.00111976	0.00267438	-2.4134e+06	2.70412e+06	2.59015e+06	
93361	0.0796436	-1.72027	0.489133	-0.000267455	0.00128201	0.00282979	664757	897552	1.2267e+06	
93391	0.0789459	-1.71946	0.489357	-0.000107914	0.00149742	0.0031242	-6.08375e+06	7.06765e+06	1.95001e+06	
93421	0.0795728	-1.71986	0.489233	-0.00339314	0.00531395	0.0041772	5.46952e+06	-3.5457e+06	-1.07898e+06	
93451	0.0796811	-1.71911	0.488638	-0.000931856	0.00371839	0.00369166	945183	6.54714e+06	-5.20021e+06	
93481	0.0793579	-1.72021	0.488751	-0.000563235	0.00627177	0.00166358	-2.82348e+06	-9.60706e+06	993956	
93511	0.0794926	-1.71931	0.488365	-0.00200321	0.00137217	0.0021705	1.17723e+06	7.89382e+06	-3.38075e+06	
93601	0.0793856	-1.72005	0.488202	-1.07601e-08	-2.39506e-09	5.13764e-11	-11699.6	3.59179e+06	-4.0484e+06	
93631	0.0788564	-1.71917	0.488069	-1.41472e-06	0.000431012	-0.000485808	-4.63908e+06	7.69517e+06	-1.17262e+06	
93661	0.0788564	-1.71917	0.488069	-0.00473328	0.00828008	-0.00168188	-4.63908e+06	7.69517e+06	-1.17262e+06	
93721	0.0796084	-1.7192	0.488869	-8.93007e-09	-1.85202e-09	3.00048e-10	3.9393e+06	-1.22694e+06	1.56657e+06	
93751	0.079021	-1.71906	0.488454	0.00212721	-0.000662552	0.000845948	-5.16056e+06	1.18766e+06	-3.64673e+06	
93781	0.0789013	-1.71899	0.488508	-4.02219e-05	-0.000163736	-0.00068568	-1.05276e+06	637965	478147	
93811	0.0789013	-1.71899	0.488508	-0.00142986	0.000678377	-5.4526e-05	-1.05276e+06	637965	478147	
93841	0.0789013	-1.71899	0.488508	-0.00376698	0.00209466	0.00100696	-1.05276e+06	637965	478147	
93871	0.0784307	-1.72004	0.48976	-0.00395647	0.00220949	0.00109303	-789890	-1.77409e+06	-3.24846e+06	
93901	0.0789928	-1.71992	0.490093	-0.00433562	0.00135793	-0.000466234	4.9539e+06	997940	2.9402e+06	
93930	0.0789814	-1.71989	0.49011	-0.000620197	0.00210639	0.00173891	-100589	282630	148512	
93961	0.0789932	-1.71982	0.489967	-0.000704692	0.0023438	0.00186366	104740	612731	-1.2595e+06	
94021	0.0789904	-1.71972	0.489628	-6.43783e-09	-1.19854e-09	3.65639e-10	-853341	1.23086e+06	-2.71667e+06	
94051	0.078828	-1.71992	0.489562	-0.000742413	0.00107084	-0.0023635	-1.43496e+06	-1.80233e+06	-583067	
94081	0.0787933	-1.72006	0.489853	-0.00190473	-0.00038904	-0.00283578	-307073	-1.18137e+06	2.57669e+06	
94111	0.0789397	-1.72007	0.489752	-0.00202449	-0.000849773	-0.00183087	1.29629e+06	-128758	-896708	
94141	0.0789697	-1.72013	0.490118	-0.00155783	-0.000896126	-0.00215369	265656	-515372	3.2431e+06	
94171	0.0791918	-1.72023	0.490243	-0.00143828	-0.00112804	-0.000694296	1.96894e+06	-931359	1.10467e+06	
94201	0.0793266	-1.72089	0.489867	-0.000611324	-0.00151921	-0.000230333	1.19557e+06	-5.7906e+06	-3.33331e+06	
94232	0.0793038	-1.72095	0.490054	-3.74504e-05	-0.0042987	-0.00183032	-201932	-562413	1.65925e+06	
94261	0.0795859	-1.72079	0.490028	-7.98562e-05	-0.00441681	-0.00148188	2.50593e+06	1.38677e+06	-227063	
94291	0.0795859	-1.72079	0.490028	0.00270173	-0.0028775	-0.00173392	2.50593e+06	1.38677e+06	-227063	
94321	0.0795859	-1.72079	0.490028	0.00773865	-9.01011e-05	-0.00219032	2.50593e+06	1.38677e+06	-227063	
94351	0.0788365	-1.72017	0.489482	0.00901668	0.000617149	-0.00230612	-6.66864e+06	5.57233e+06	-4.86192e+06	
94381	0.0795045	-1.7198	0.489763	0.00381514	0.00496356	-0.00609842	5.94668e+06	3.24845e+06	2.50008e+06	
94411	0.0797076	-1.71987	0.489608	0.00417194	0.00515847	-0.00594841	59680.4	5290.23	-51579.7	
94441	0.0797076	-1.71987	0.489608	0.00422924	0.00516355	-0.00599793	59680.4	5290.23	-51579.7	
94471	0.0799432	-1.72003	0.489683	0.00428116	0.00516815	-0.00604281	2.10152e+06	-1.41877e+06	666042	
94500	0.0799432	-1.72003	0.489683	0.00793781	0.00269949	-0.00488389	2.10152e+06	-1.41877e+06	666042	
94531	0.0799432	-1.72003	0.489683	0.0135489	-0.00108863	-0.00310556	2.10152e+06	-1.41877e+06	666042	
94561	0.0796139	-1.72028	0.489683	0.0139272	-0.00134401	-0.00298567	-3.98145e+06	-1.42482e+06	-250074	
94591	0.0792881	-1.72004	0.489703	0.0121355	-0.00198518	-0.0030982	-2.91479e+06	2.12093e+06	177850	
94621	0.0793327	-1.72006	0.489745	0.0109987	-0.00115802	-0.00302884	399106	-132814	373207	
94651	0.0797019	-1.72037	0.490229	0.0111544	-0.00120982	-0.00288329	3.30667e+06	-2.74833e+06	4.33912e+06	
94681	0.0797019	-1.72037	0.490229	0.01542	-0.00475517	0.00271418	3.30667e+06	-2.74833e+06	4.33912e+06	
94711	0.0797019	-1.72037	0.490229	0.0226616	-0.010774	0.0122169	3.30667e+06	-2.74833e+06	4.33912e+06	
94741	0.0797019	-1.72037	0.490229	0.0328792	-0.0192664	0.0256247	3.30667e+06	-2.74833e+06	4.33912e+06	
94771	0.0797263	-1.72034	0.48945	0.0334744	-0.0197611	0.0264058	1.25168e+06	-882148	-1.91487e+06	
94801	0.0797712	-1.72012	0.489365	0.0340377	-0.020158	0.0255441	403525	1.99038e+06	-763556	
94831	0.0794922	-1.72007	0.489309	0.0342314	-0.0192026	0.0251776	-2.50834e+06	396185	-498566	
94861	0.0794922	-1.72007	0.489309	0.0307699	-0.0186559	0.0244896	-2.50834e+06	396185	-498566	
94891	0.0796808	-1.72039	0.489185	0.0295659	-0.0184657	0.0242503	1.69794e+06	-2.8329e+06	-1.12194e+06	
94921	0.0794281	-1.72044	0.489183	0.0308902	-0.0206754	0.0233751	-2.27523e+06	-469009	-17704.8	
94951	0.0792168	-1.7207	0.488991	0.0297299	-0.0209146	0.0233661	-1.90491e+06	-2.33895e+06	-1.72646e+06	
94981	0.0794308	-1.72027	0.489796	0.029387	-0.0213356	0.0230553	-1.18437e+06	1.83102e+06	2.15794e+06	
95011	0.0794308	-1.72027	0.489796	0.0281079	-0.0193581	0.0253859	-1.18437e+06	1.83102e+06	2.15794e+06	
95071	0.0794801	-1.72004	0.489523	-2.48468e-09	-4.23299e-10	7.66432e-11	-107792	2.34158e+06	-19110.9	
95101	0.0794801	-1.72004	0.489523	-0.000103483	0.00224792	-1.83464e-05	-107792	2.34158e+06	-19110.9	
95131	0.0794285	-1.71993	0.489585	-0.000164924	0.00358262	-2.92396e-05	-466794	1.01883e+06	563442	
95161	0.0796567	-1.72014	0.489974	-0.000557031	0.00443844	0.000444052	2.06457e+06	-1.8962e+06	3.51811e+06	
95191	0.0795022	-1.71985	0.489235	0.00123915	0.00278874	0.00350481	-1.39883e+06	2.5746e+06	-6.6888e+06	
95221	0.0799176	-1.72008	0.490182	2.21619e-05	0.00502865	-0.00231444	3.764e+06	-2.0747e+06	8.58485e+06	
95251	0.0796792	-1.71999	0.490017	0.00329684	0.00322366	0.00515437	-2.1611e+06	819369	-1.49881e+06	
95281	0.0796905	-1.71994	0.490148	0.00245401	0.00354321	0.00456984	102352	426915	1.19152e+06	
95311	0.0797924	-1.72001	0.489995	0.00248779	0.0036841	0.00496304	925491	-637433	-1.39043e+06	
95341	0.0797924	-1.72001	0.489995	0.00362614	0.00290005	0.00325282	925491	-637433	-1.39043e+06	
95371	0.0791553	-1.7192	0.489322	0.0038205	0.00276619	0.00296083	-5.79378e+06	7.43277e+06	-6.11942e+06	
95401	0.0793729	-1.72026	0.489972	0.00103948	0.00633392	2.35068e-05	1.97925e+06	-9.66631e+06	5.91387e+06	
95431	0.0795972	-1.72007	0.490113	0.0025833	-0.0012058	0.00463632	2.04162e+06	1.70312e+06	1.28375e+06	
95491	0.0796436	-1.71975	0.490473	-9.49832e-10	-3.15432e-11	2.4866e-10	2.72715e+06	1.95659e+06	-721381	
95521	0.079643	-1.71975	0.490489	0.00188173	0.00135004	-0.000497753	-5328.4	-12179.2	143106	
95551	0.0794484	-1.71934	0.489917	0.0018771	0.00133945	-0.000373251	-1.77584e+06	3.72194e+06	-5.21532e+06	
95581	0.0793098	-1.71927	0.490101	0.000864869	0.00346095	-0.00334598	-1.26529e+06	634168	1.6796e+06	
95611	0.0791517	-1.71916	0.489907	-0.00023593	0.00401268	-0.00188473	-1.44433e+06	1.03977e+06	-1.77451e+06	
95641	0.0791516	-1.71926	0.490421	-0.00123252	0.00473012	-0.00310915	-1102.28	-949653	4.69841e+06	
95671	0.0790695	-1.7192	0.489638	-0.00123269	0.00458767	-0.00240439	-751149	570364	-7.1652e+06	
95701	0.0792188	-1.71968	0.489164	-0.00154817	0.00482722	-0.00541377	1.36633e+06	-4.37743e+06	-4.34278e+06	
95731	0.078971	-1.71949	0.48953	-0.00146619	0.00456458	-0.00567434	-2.27095e+06	1.69431e+06	3.357e+06	
95761	0.0795929	-1.71953	0.49025	-0.00228373	0.00517453	-0.00446582	5.70215e+06	-331930	6.6022e+06	
95791	0.0795878	-1.71953	0.490246	0.000282237	0.00502516	-0.00149483	-46874.1	-23139.3	-36750.6	
95821	0.0795878	-1.71953	0.490246	0.000218957	0.00499392	-0.00154444	-46874.1	-23139.3	-36750.6	
95851	0.0795878	-1.71953	0.490246	0.00011349	0.00494186	-0.00162713	-46874.1	-23139.3	-36750.6	
95881	0.0793164	-1.71945	0.490615	8.53658e-05	0.00492798	-0.00164918	-2.49462e+06	792224	3.38434e+06	
95911	0.0793054	-1.7199	0.490267	-0.00208495	0.00561721	0.00129519	-101203	-4.19339e+06	-3.19654e+06	
95941	0.0797274	-1.71958	0.490291	-0.00215782	0.00259797	-0.00100632	3.88264e+06	2.95144e+06	226955	
95971	0.0799986	-1.71925	0.489486	0.000637686	0.00472301	-0.00084291	2.49671e+06	3.07896e+06	-7.41396e+06	
96001	0.0798118	-1.71947	0.489405	0.00288472	0.00749407	-0.00751548	-1.72082e+06	-2.06779e+06	-748942	
96031	0.079744	-1.71925	0.489256	0.00143923	0.00575713	-0.00814459	-623965	2.01583e+06	-1.37101e+06	
96061	0.0799595	-1.71942	0.489215	0.00123332	0.00642235	-0.00859702	1.98812e+06	-1.55374e+06	-377141	
96091	0.080194	-1.71955	0.489072	0.00182976	0.00595623	-0.00871016	2.1644e+06	-1.17256e+06	-1.31845e+06	
96121	0.0799099	-1.71935	0.489675	0.00260894	0.00553411	-0.0091848	-2.62387e+06	1.86267e+06	5.56402e+06	
96151	0.0801162	-1.7194	0.489341	0.00229407	0.00575763	-0.00851712	1.90701e+06	-519874	-3.08564e+06	
96181	0.0801256	-1.71947	0.489079	0.00309502	0.00553928	-0.00981309	87053.4	-671040	-2.41863e+06	
96211	0.0801256	-1.71947	0.489079	0.00320993	0.00465351	-0.0130057	87053.4	-671040	-2.41863e+06	
96241	0.0799688	-1.7198	0.489005	0.00326216	0.00425088	-0.0144569	-1.45186e+06	-2.99766e+06	-688967	
96271	0.0797284	-1.71979	0.488813	0.00199904	0.00164292	-0.0150563	-2.22689e+06	89336.8	-1.78296e+06	
96301	0.0796689	-1.71956	0.488889	0.000395677	0.00170724	-0.01634	-551798	2.12776e+06	705586	
96331	0.0796689	-1.71956	0.488889	-0.000498236	0.00515422	-0.0151969	-551798	2.12776e+06	705586	
96360	0.0799889	-1.71979	0.489596	-0.000597559	0.00553721	-0.0150699	2.97091e+06	-2.17525e+06	6.56811e+06	
96391	0.0804572	-1.71982	0.489788	0.000917604	0.00442784	-0.0117202	4.34998e+06	-241182	1.78682e+06	
96451	0.0800622	-1.71962	0.489655	1.07541e-10	3.82997e-10	3.2496e-10	-3.67194e+06	1.86903e+06	-1.24142e+06	
96481	0.0804944	-1.7198	0.489666	-0.0013219	0.000672851	-0.000446912	4.02188e+06	-1.72613e+06	100115	
96511	0.0796173	-1.71944	0.490038	0.00121189	-0.00041461	-0.000383839	-8.16642e+06	3.42889e+06	3.46619e+06	
96541	0.0799064	-1.71968	0.489592	-0.000993045	0.000511191	0.000552034	1.06451e+06	-113382	-1.18809e+06	
96571	0.0799628	-1.71966	0.489463	-0.000514015	0.000460169	1.73927e-05	525950	224110	-1.2084e+06	
96601	0.0799628	-1.71966	0.489463	0.000196017	0.000762718	-0.00161394	525950	224110	-1.2084e+06	
96632	0.0803007	-1.71905	0.489198	0.000622036	0.000944247	-0.00259274	3.15338e+06	5.66925e+06	-2.46558e+06	
96661	0.0799044	-1.71981	0.490001	0.00327088	0.00570642	-0.00466383	-3.70112e+06	-7.10814e+06	7.49576e+06	
96691	0.0800604	-1.71925	0.489727	5.09058e-05	-0.000477664	0.00185748	1.45766e+06	5.19636e+06	-2.55658e+06	
96721	0.0795845	-1.7199	0.49014	0.00123161	0.00373138	-0.000213353	-4.44976e+06	-6.0114e+06	3.85337e+06	
96751	0.0803264	-1.72027	0.493338	-0.00250619	-0.00131819	0.00302348	6.94075e+06	-3.50655e+06	2.99247e+07	
96781	0.0808309	-1.72075	0.493081	0.0029076	-0.0040533	0.0263648	4.72312e+06	-4.46736e+06	-2.41322e+06	
96810	0.0808309	-1.72075	0.493081	0.0107008	-0.0114244	0.022383	4.72312e+06	-4.46736e+06	-2.41322e+06	
96841	0.0808309	-1.72075	0.493081	0.0228864	-0.0229502	0.0161569	4.72312e+06	-4.46736e+06	-2.41322e+06	
96871	0.0808309	-1.72075	0.493081	0.0393229	-0.0384966	0.00775886	4.72312e+06	-4.46736e+06	-2.41322e+06	
96931	0.0795874	-1.71844	0.491214	-2.01877e-10	1.06025e-10	1.46433e-10	3.78673e+06	496209	2.55945e+06	
96961	0.0796458	-1.71848	0.49178	0.00215844	0.000282839	0.00145889	548291	-411371	5.31924e+06	
96991	0.0798317	-1.71862	0.491938	0.002619	-6.27125e-05	0.00592704	1.74813e+06	-1.29882e+06	1.48611e+06	
97021	0.0799137	-1.71869	0.491837	0.00393009	-0.00103683	0.00704163	771482	-679868	-952094	
97051	0.0797742	-1.71868	0.491881	0.00450871	-0.00154673	0.00632756	-1.31361e+06	117339	418370	
97081	0.079909	-1.71878	0.491986	0.00372054	-0.00147633	0.00657858	1.27052e+06	-939391	984474	
97111	0.0796983	-1.71836	0.491415	0.00478778	-0.00226541	0.00740554	-1.98584e+06	3.93269e+06	-5.38402e+06	
97141	0.0812502	-1.71915	0.491918	0.00341755	0.00044814	0.00369056	1.46373e+07	-7.3882e+06	4.74481e+06	
97171	0.0814503	-1.7192	0.491442	0.00517403	-0.000438445	0.00425994	1.88875e+06	-549176	-4.49392e+06	
97201	0.0814539	-1.71926	0.491799	0.00579732	-0.000619673	0.00277695	33813.4	-569047	3.37434e+06	
97231	0.0814769	-1.71922	0.491776	0.00579935	-0.000653815	0.00297941	217513	394172	-215322	
97261	0.0823561	-1.71915	0.491688	0.00587113	-0.000523739	0.00290835	8.31557e+06	666593	-831837	
97291	0.0821844	-1.71908	0.491437	0.00661953	-0.000463745	0.00283348	-1.62556e+06	669923	-2.37457e+06	
97321	0.0821844	-1.71908	0.491437	0.00501022	0.000199478	0.000482656	-1.62556e+06	669923	-2.37457e+06	
97351	0.0824503	-1.7196	0.491674	0.00457132	0.000380357	-0.000158478	2.51974e+06	-4.88869e+06	2.24258e+06	
97381	0.0823333	-1.71935	0.49176	0.00593198	-0.00225954	0.00105252	-1.10868e+06	2.31388e+06	817244	
97412	0.0827422	-1.71998	0.491844	0.00503395	-0.000385292	0.00171449	3.87716e+06	-5.97929e+06	796488	
97441	0.0835283	-1.71912	0.491524	0.00759288	-0.00433162	0.00224017	7.4603e+06	8.16917e+06	-3.0432e+06	
97470	0.0811181	-1.71805	0.492031	0.0129643	0.00155018	4.90668e-05	-2.28863e+07	1.01872e+07	4.82095e+06	
97501	0.0842582	-1.71994	0.491632	-0.00351383	0.00888495	0.00352015	2.98367e+07	-1.79623e+07	-3.79689e+06	
97531	0.0813449	-1.71922	0.490693	0.0108078	0.000263054	0.00169764	-2.77028e+07	6.88715e+06	-8.92535e+06	
97561	0.0825377	-1.71976	0.490493	-0.0108004	0.00563503	-0.00526414	1.13472e+07	-5.12407e+06	-1.90671e+06	
97591	0.0815746	-1.71993	0.492872	-0.0084175	0.00455897	-0.00566454	-9.17122e+06	-1.68855e+06	2.26555e+07	
97621	0.0810733	-1.72282	0.492442	-0.00951805	0.00435635	-0.00294589	-4.7777e+06	-2.75228e+07	-4.09307e+06	
97651	0.0796538	-1.72155	0.492262	-0.0115247	-0.00720324	-0.00466498	-1.35317e+07	1.20774e+07	-1.71655e+06	
97711	0.0783851	-1.71891	0.493285	-0.0361567	-0.161288	-2.50129e-10	-1.72549e+07	1.96226e+07	3.31387e+06	
97741	0.0783851	-1.71891	0.493285	-0.0553097	-0.139506	0.0036784	-1.72549e+07	1.96226e+07	3.31387e+06	
97771	0.0771225	-1.71941	0.493737	-0.0692862	-0.123612	0.00636263	-1.20627e+07	-4.78172e+06	4.31921e+06	
97801	0.0780804	-1.72228	0.491947	-0.0776094	-0.126912	0.00934289	9.15829e+06	-2.74392e+07	-1.71119e+07	
97831	0.07922	-1.72146	0.493201	-0.0765105	-0.130204	0.00728946	1.09057e+07	7.92817e+06	1.2002e+07	
97861	0.07298	-1.72539	0.486773	-0.0725844	-0.12735	0.0116102	-5.97435e+07	-3.76186e+07	-6.15505e+07	
97891	0.0681594	-1.73372	0.482857	-0.113807	-0.153307	-0.0308597	-4.6173e+07	-7.98299e+07	-3.75017e+07	
97921	0.0569355	-1.7295	0.475219	-0.152593	-0.220364	-0.0623611	-1.07559e+08	4.04124e+07	-7.31971e+07	
98011	0.0409196	-1.72228	0.443976	0.0206116	-0.222616	-4.1969e-10	1.40192e+06	2.29923e+07	-1.17887e+08	
98041	0.0484883	-1.72098	0.431083	0.0209901	-0.216409	-0.0318296	7.27379e+07	1.24691e+07	-1.23904e+08	
98071	0.0479749	-1.71596	0.417824	0.0449936	-0.212294	-0.0727181	-4.93656e+06	4.82739e+07	-1.27497e+08	
98101	0.0552783	-1.71707	0.399829	0.0445493	-0.207949	-0.0841928	7.02814e+07	-1.06595e+07	-1.73171e+08	
98131	0.0552783	-1.71707	0.399829	0.114128	-0.218502	-0.255632	7.02814e+07	-1.06595e+07	-1.73171e+08	
98161	0.0683865	-1.70881	0.380543	0.166839	-0.226497	-0.38551	1.26241e+08	7.95732e+07	-1.85742e+08	
98191	0.0806506	-1.70291	0.356482	0.265307	-0.16443	-0.530389	1.18181e+08	5.68308e+07	-2.31857e+08	
98221	0.0894126	-1.68292	0.330354	0.357489	-0.120102	-0.711237	8.44856e+07	1.92732e+08	-2.51934e+08	
98251	0.093754	-1.66583	0.303349	0.405646	-0.0102445	-0.85484	4.18919e+07	1.64923e+08	-2.60582e+08	
98281	0.0978849	-1.64631	0.283619	0.434551	0.103553	-1.03464	3.98829e+07	1.88499e+08	-1.9049e+08	
98311	0.0978849	-1.64631	0.283619	0.497965	0.403267	-1.33752	3.98829e+07	1.88499e+08	-1.9049e+08	
98341	0.108887	-1.64964	0.248217	0.505144	0.437197	-1.37181	4.37819e+07	1.16968e+07	-2.07919e+08	
98371	0.110955	-1.64285	0.224454	0.511711	0.438951	-1.403	2.00148e+07	6.57342e+07	-2.29925e+08	
98401	0.118133	-1.63166	0.200325	0.515314	0.450783	-1.44438	6.94901e+07	1.08313e+08	-2.33608e+08	
98431	0.135232	-1.62782	0.180772	0.523653	0.463781	-1.47242	1.65655e+08	3.72219e+07	-1.89426e+08	
98461	0.145425	-1.61255	0.144701	0.543531	0.468248	-1.49515	9.8805e+07	1.47987e+08	-3.49663e+08	
98491	0.145425	-1.61255	0.144701	0.644312	0.619195	-1.8518	9.8805e+07	1.47987e+08	-3.49663e+08	
98521	0.151009	-1.60839	0.124083	0.703595	0.707987	-2.0616	5.41753e+07	4.04063e+07	-2.00048e+08	
98551	0.15067	-1.58697	0.108407	0.7361	0.732231	-2.18163	-3.28647e+06	2.07944e+08	-1.52182e+08	
98581	0.152654	-1.57383	0.0908448	0.734227	0.850759	-2.26837	1.92741e+07	1.27689e+08	-1.70611e+08	
98611	0.150508	-1.55646	0.074164	0.74637	0.931203	-2.37586	-2.08549e+07	1.68838e+08	-1.62137e+08	
98641	0.158939	-1.54945	0.0630731	0.735734	1.01731	-2.45855	8.20017e+07	6.81477e+07	-1.07878e+08	
98671	0.161521	-1.53805	0.0544313	0.784935	1.0582	-2.52327	2.51317e+07	1.10946e+08	-8.41018e+07	
98701	0.165142	-1.52602	0.0447766	0.800014	1.12477	-2.57374	3.52609e+07	1.17118e+08	-9.40171e+07	
98731	0.167454	-1.51562	0.031157	0.804245	1.13882	-2.58502	2.25318e+07	1.01387e+08	-1.32751e+08	
98761	0.170976	-1.50327	0.0183627	0.804245	1.13882	-2.58502	3.43513e+07	1.20426e+08	-1.24792e+08	
98791	0.170976	-1.50327	0.0183627	0.835161	1.2472	-2.69733	3.43513e+07	1.20426e+08	-1.24792e+08	
98851	0.174667	-1.46977	0.00435131	0.059754	-0.316435	7.48545e-10	-1.31724e+07	2.02391e+08	-4.98554e+07	
98881	0.172157	-1.45947	-0.00277489	0.0573829	-0.280005	-0.00897397	-2.45382e+07	1.00775e+08	-6.96676e+07	
98911	0.175536	-1.44718	-0.00895439	0.0492853	-0.246749	-0.0319643	3.30486e+07	1.20141e+08	-6.0443e+07	
98941	0.178479	-1.43873	-0.0139633	0.0621743	-0.199894	-0.055537	2.88031e+07	8.2726e+07	-4.9021e+07	
98971	0.177278	-1.42241	-0.0156876	0.0751357	-0.162667	-0.0775965	-1.17628e+07	1.59776e+08	-1.68847e+07	
99001	0.182208	-1.40819	-0.0174819	0.0698424	-0.0907683	-0.0851946	4.83126e+07	1.39327e+08	-1.75812e+07	
99031	0.182517	-1.38684	-0.0167823	0.0930325	-0.0238911	-0.0936336	3.02171e+06	2.09374e+08	6.85908e+06	
99061	0.186448	-1.3632	-0.0160435	0.0944829	0.0766085	-0.0903413	3.85691e+07	2.31899e+08	7.24725e+06	
99121	0.183968	-1.32044	-0.0164785	0.0273387	-0.310663	2.56051e-11	6.6617e+06	2.31815e+08	-7.62047e+06	
99181	0.183504	-1.27771	-0.0245591	0.0260926	-0.29256	-1.41152e-10	-1.03241e+07	2.09358e+08	-4.66305e+07	
99241	0.186646	-1.23242	-0.0377463	0.0251703	-0.27561	-2.15515e-10	1.23109e+07	2.11543e+08	-3.06063e+07	
99271	0.186646	-1.23242	-0.0377463	0.0380967	-0.0534894	-0.0321366	1.23109e+07	2.11543e+08	-3.06063e+07	
99301	0.186646	-1.23242	-0.0377463	0.062103	0.35902	-0.0918188	1.23109e+07	2.11543e+08	-3.06063e+07	
99391	0.183641	-1.1166	-0.065584	0.0226751	-0.623351	-1.02302e-10	-4.48433e+06	2.70291e+08	-7.57682e+07	
99421	0.186313	-1.09623	-0.076028	0.0220024	-0.582807	-0.0113652	2.64003e+07	2.01293e+08	-1.03224e+08	
99451	0.19041	-1.06915	-0.0909371	0.0275465	-0.540535	-0.0330424	4.05215e+07	2.67809e+08	-1.47438e+08	
99510	0.194432	-1.03756	-0.0995633	0.0308999	-0.656527	1.37995e-09	3.98058e+07	3.12693e+08	-8.53665e+07	
99541	0.204017	-0.975917	-0.122917	0.0344824	-0.628385	-0.00768299	2.21859e+07	3.39755e+08	-6.23277e+07	
99571	0.208263	-0.935451	-0.133211	0.0364792	-0.597807	-0.0132925	4.20921e+07	4.01174e+08	-1.02049e+08	
99601	0.215276	-0.919971	-0.140424	0.0377419	-0.585772	-0.0163539	6.95726e+07	1.53567e+08	-7.15571e+07	
99630	0.215276	-0.919971	-0.140424	0.100357	-0.447562	-0.0807553	6.95726e+07	1.53567e+08	-7.15571e+07	
99661	0.200398	-0.888593	-0.150382	0.156711	-0.323173	-0.138717	-1.47691e+08	3.11486e+08	-9.88556e+07	
99721	0.19021	-0.866576	-0.159819	-0.0185651	-0.461893	2.9435e-09	-1.0125e+08	2.1879e+08	-9.37747e+07	
99751	0.192295	-0.855697	-0.166981	-0.0975405	-0.291237	-0.0731442	2.07388e+07	1.08194e+08	-7.12294e+07	
99781	0.190827	-0.84261	-0.173489	-0.0857194	-0.229566	-0.113745	-1.46089e+07	1.30253e+08	-6.47708e+07	
99811	0.18384	-0.818762	-0.171159	-0.0896638	-0.194398	-0.131233	-6.95947e+07	2.37534e+08	2.32112e+07	
99871	0.175864	-0.77717	-0.148389	-0.0647212	-0.404113	3.15657e-10	-3.41647e+07	2.22591e+08	1.10968e+08	
99901	0.175864	-0.77717	-0.148389	-0.0985442	-0.183748	0.109858	-3.41647e+07	2.22591e+08	1.10968e+08	
99931	0.1763	-0.768463	-0.141348	-0.126218	-0.00344852	0.199742	4.35246e+06	8.69033e+07	7.02746e+07	
99961	0.168577	-0.748776	-0.134898	-0.123867	0.0434793	0.237691	-7.71348e+07	1.96642e+08	6.4434e+07	
99991	0.168577	-0.748776	-0.134898	-0.234941	0.326644	0.330476	-7.71348e+07	1.96642e+08	6.4434e+07	
100021	0.160405	-0.730304	-0.13151	-0.27428	0.426931	0.363337	-8.17304e+07	1.84735e+08	3.38785e+07	
100051	0.153502	-0.710416	-0.128435	-0.291444	0.465726	0.370451	-6.90887e+07	1.99052e+08	3.07751e+07	
100081	0.153502	-0.710416	-0.128435	-0.368132	0.686674	0.404612	-6.90887e+07	1.99052e+08	3.07751e+07	
100111	0.128632	-0.664601	-0.0905181	-0.426167	0.853877	0.430463	-2.49117e+08	4.58918e+08	3.79801e+08	
100141	0.129879	-0.65992	-0.0749733	-0.568163	1.11546	0.646949	1.25031e+07	4.69228e+07	1.55828e+08	
100171	0.135196	-0.650073	-0.0687129	-0.564412	1.12954	0.693698	5.33394e+07	9.87843e+07	6.28059e+07	
100231	0.135907	-0.618102	-0.0637763	-0.101653	-0.38625	2.11526e-09	7.13704e+06	3.20982e+08	4.95626e+07	
100261	0.114066	-0.58908	-0.0587807	-0.0962998	-0.145514	0.037172	-2.19437e+08	2.91591e+08	5.01921e+07	
100291	0.100391	-0.557873	-0.0492213	-0.221379	0.0206933	0.0657815	-1.37498e+08	3.13771e+08	9.61153e+07	
100321	0.100391	-0.557873	-0.0492213	-0.423501	0.481936	0.207071	-1.37498e+08	3.13771e+08	9.61153e+07	
100351	0.080452	-0.530754	-0.0353538	-0.4895	0.632546	0.253206	-2.00729e+08	2.73017e+08	1.39605e+08	
100381	0.080452	-0.530754	-0.0353538	-0.766506	1.00931	0.445862	-2.00729e+08	2.73017e+08	1.39605e+08	
100411	0.0545133	-0.499261	-0.0139502	-0.790594	1.04207	0.462615	-2.61502e+08	3.17492e+08	2.15782e+08	
100441	0.0545133	-0.499261	-0.0139502	-1.05733	1.36591	0.682712	-2.61502e+08	3.17492e+08	2.15782e+08	
100471	0.0377386	-0.497836	-0.00160994	-1.28483	1.64213	0.870442	-1.69234e+08	1.43756e+07	1.24496e+08	
100501	0.026707	-0.513891	0.0267809	-1.39653	1.65162	0.952609	-1.11375e+08	-1.62086e+08	2.86635e+08	
100531	0.019765	-0.512523	0.0388047	-1.44665	1.57868	1.08159	-7.01385e+07	1.38166e+07	1.21482e+08	
100561	0.0161543	-0.504574	0.0463431	-1.45927	1.58117	1.10346	-3.65087e+07	8.03817e+07	7.62231e+07	
100591	0.0161543	-0.504574	0.0463431	-1.4987	1.66798	1.18578	-3.65087e+07	8.03817e+07	7.62231e+07	
100621	0.0078542	-0.505967	0.0497926	-1.52937	1.7355	1.24981	-8.39882e+07	-1.40968e+07	3.49058e+07	
100651	0.00274918	-0.497619	0.0625156	-1.57724	1.72747	1.26971	-5.16975e+07	8.45369e+07	1.28844e+08	
100681	-0.00516248	-0.482972	0.0966402	-1.5943	1.75536	1.31222	-8.01803e+07	1.48436e+08	3.45833e+08	
100741	-0.00384541	-0.489003	0.11812	-0.0424653	0.00482939	1.83223e-09	1.33576e+07	-6.11621e+07	2.17846e+08	
100801	-0.00357968	-0.477942	0.147665	-0.0476144	0.0382182	3.07042e-10	-2.38376e+07	4.95693e+07	1.12761e+08	
100831	0.00311648	-0.48303	0.169353	-0.0654925	0.0753952	0.0845706	6.80453e+07	-5.17048e+07	2.2038e+08	
100861	-0.00144482	-0.470812	0.182238	-0.0287481	0.0474746	0.203576	-4.63852e+07	1.24252e+08	1.31038e+08	
100891	-0.00938858	-0.462461	0.204085	-0.0440552	0.0884776	0.246819	-8.08418e+07	8.49835e+07	2.22334e+08	
100921	-0.0188723	-0.457487	0.219518	-0.0561815	0.101225	0.280169	-9.65823e+07	5.06632e+07	1.57171e+08	
100950	-0.0188723	-0.457487	0.219518	-0.154695	0.152902	0.440483	-9.65823e+07	5.06632e+07	1.57171e+08	
100981	-0.0266874	-0.4528	0.230959	-0.238722	0.196979	0.577222	-7.96463e+07	4.7766e+07	1.16591e+08	
101011	-0.0226298	-0.467353	0.267711	-0.298457	0.232803	0.664665	4.13796e+07	-1.48414e+08	3.74812e+08	
101041	-0.0219585	-0.459351	0.287753	-0.277353	0.157112	0.855819	6.85156e+06	8.16667e+07	2.04537e+08	
101071	-0.0057023	-0.458924	0.309973	-0.274887	0.186512	0.929452	1.66023e+08	4.35309e+06	2.26931e+08	
101101	0.000245492	-0.448887	0.331308	-0.235041	0.187557	0.983916	6.07852e+07	1.02584e+08	2.18042e+08	
101191	0.00786115	-0.451906	0.348486	-0.0237327	0.00925446	2.28697e-10	7.62914e+06	-2.12137e+07	3.20558e+07	
101221	-0.000607522	-0.443573	0.35388	-0.0168665	-0.00983784	0.0288503	-8.6716e+07	8.53347e+07	5.52335e+07	
101251	0.000833956	-0.457611	0.361002	-0.0871065	0.0592833	0.0735894	1.47698e+07	-1.43846e+08	7.29749e+07	
101281	0.00568631	-0.470158	0.368294	-0.0764722	-0.0442858	0.126131	4.97511e+07	-1.28641e+08	7.47637e+07	
101311	0.00773751	-0.470562	0.377858	-0.0436365	-0.129189	0.175475	2.10442e+07	-4.14115e+06	9.8121e+07	
101341	0.0087354	-0.477127	0.389885	-0.0341666	-0.131052	0.21963	1.02452e+07	-6.74037e+07	1.23475e+08	
101371	0.00424894	-0.485734	0.398986	-0.0298636	-0.159362	0.271489	-4.60904e+07	-8.84194e+07	9.34948e+07	
101401	-0.00385574	-0.477578	0.401022	-0.0381599	-0.175277	0.288318	-8.33238e+07	8.38462e+07	2.09314e+07	
101461	-0.00919901	-0.478507	0.404342	-0.0752736	-0.0619898	3.53559e-10	-5.49697e+07	-9.55031e+06	3.41594e+07	
101491	-0.00625091	-0.485386	0.414801	-0.123097	-0.0702985	0.0297187	3.03493e+07	-7.08262e+07	1.07671e+08	
101521	-0.0117453	-0.478684	0.418766	-0.0994248	-0.125543	0.113702	-5.65987e+07	6.90415e+07	4.08399e+07	
101551	-0.00457928	-0.47547	0.425465	-0.148666	-0.0654769	0.149233	7.38579e+07	3.31327e+07	6.90496e+07	
101581	-0.00550495	-0.473163	0.427617	-0.11543	-0.0505672	0.180305	-9.54891e+06	2.37963e+07	2.21949e+07	
101611	0.000860976	-0.474174	0.428005	-0.119727	-0.0398588	0.190293	6.57075e+07	-1.04431e+07	4.00662e+06	
101641	-0.00168979	-0.473899	0.427229	-0.0901582	-0.0445582	0.192096	-2.63439e+07	2.84775e+06	-8.01147e+06	
101671	-0.00168979	-0.473899	0.427229	-0.125722	-0.0407138	0.18128	-2.63439e+07	2.84775e+06	-8.01147e+06	
101701	0.0073011	-0.475956	0.427253	-0.130464	-0.0402012	0.179838	1.9469e+07	2.79564e+07	1.28405e+07	
101731	0.0073011	-0.475956	0.427253	-0.109438	-0.0100082	0.193706	1.9469e+07	2.79564e+07	1.28405e+07	
101791	0.0113692	-0.471433	0.427461	-0.0225789	0.0016766	1.71318e-09	1.51285e+07	3.7465e+07	2.65234e+06	
101821	0.0286922	-0.465775	0.428404	-0.0162249	0.0174119	0.00111398	1.79546e+08	5.86414e+07	9.77484e+06	
101851	0.0410721	-0.467091	0.428187	0.0915028	0.0525967	0.00697889	1.28375e+08	-1.36512e+07	-2.24455e+06	
101881	0.0485781	-0.465755	0.430922	0.195486	0.0415393	0.00516081	7.78693e+07	1.38601e+07	2.83726e+07	
101911	0.0489143	-0.465023	0.432201	0.258561	0.052766	0.0281426	3.48917e+06	7.60051e+06	1.32772e+07	
101941	0.0527817	-0.469102	0.43791	0.261491	0.0591504	0.0392954	4.01683e+07	-4.23645e+07	5.92868e+07	
101971	0.0515311	-0.469467	0.430607	0.281977	0.0375445	0.0695317	-1.30002e+07	-3.7943e+06	-7.59087e+07	
102001	0.0496234	-0.475229	0.428382	0.275347	0.0356094	0.0308183	-1.98414e+07	-5.99335e+07	-2.31411e+07	
102031	0.0470868	-0.476481	0.428627	0.268204	0.0140334	0.0224875	-2.64006e+07	-1.30302e+07	2.55206e+06	
102061	0.0486337	-0.476582	0.430409	0.253948	0.00699708	0.0238656	1.61074e+07	-1.04564e+06	1.85558e+07	
102091	0.0475568	-0.480035	0.427388	0.261679	0.00649517	0.0327724	-1.12205e+07	-3.59834e+07	-3.14735e+07	
102121	0.0484316	-0.480897	0.426421	0.258987	-0.00214084	0.0252187	9.12197e+06	-8.9893e+06	-1.00882e+07	
102151	0.0496523	-0.477267	0.428234	0.262818	-0.00591635	0.0209817	1.27346e+07	3.78734e+07	1.89158e+07	
102181	0.0496523	-0.477267	0.428234	0.279627	0.0440766	0.0459505	1.27346e+07	3.78734e+07	1.89158e+07	
102211	0.0489384	-0.473186	0.429007	0.289942	0.0747541	0.0612723	-7.45443e+06	4.26114e+07	8.06948e+06	
102241	0.0490959	-0.472533	0.427873	0.284352	0.106713	0.0673245	1.64534e+06	6.8238e+06	-1.18535e+07	
102271	0.0477316	-0.470487	0.426393	0.285734	0.112445	0.0573675	-1.4262e+07	2.13819e+07	-1.54623e+07	
102301	0.0477316	-0.470487	0.426393	0.260918	0.149649	0.0304632	-1.4262e+07	2.13819e+07	-1.54623e+07	
102331	0.0450437	-0.466279	0.427395	0.260062	0.150932	0.0295354	-3.28759e+07	1.41354e+06	-2.42535e+07	
102361	0.0448153	-0.472454	0.426528	0.254144	0.151186	0.0251698	-2.39265e+06	-6.469e+07	-9.08753e+06	
102391	0.0347263	-0.470363	0.425924	0.25357	0.135661	0.0229888	-1.05756e+08	2.19192e+07	-6.32972e+06	
102421	0.0330285	-0.478025	0.426383	0.234534	0.139606	0.0218494	-1.78077e+07	-8.03752e+07	4.81777e+06	
102451	0.0287105	-0.481762	0.428261	0.229726	0.117905	0.0231502	-4.53151e+07	-3.92165e+07	1.97044e+07	
102481	0.027268	-0.485417	0.428755	0.212053	0.102611	0.0308349	-1.51459e+07	-3.83721e+07	5.18615e+06	
102511	0.0215439	-0.488758	0.427529	0.208418	0.0934012	0.0320796	-6.01415e+07	-3.51001e+07	-1.28801e+07	
102571	0.0173614	-0.495088	0.43108	-0.0103002	0.000768379	1.34191e-09	-4.39782e+07	-6.65573e+07	3.73393e+07	
102602	0.0205852	-0.494636	0.428975	-0.0353678	-0.0371693	0.0212834	3.39249e+07	4.75356e+06	-2.21595e+07	
102631	0.021942	-0.499735	0.427982	-0.0139951	-0.0341746	0.00732295	1.42861e+07	-5.36845e+07	-1.04487e+07	
102661	0.020257	-0.496736	0.43359	-0.00585205	-0.0647747	0.00136718	-1.77525e+07	3.15975e+07	5.90835e+07	
102691	0.0253751	-0.49995	0.430213	-0.0186338	-0.0420245	0.0439073	5.39478e+07	-3.38807e+07	-3.55973e+07	
102721	0.0225736	-0.500133	0.432085	0.0234454	-0.0684515	0.0161414	-2.95457e+07	-1.92874e+06	1.97424e+07	
102751	0.0265642	-0.497946	0.431509	0.0110363	-0.0692616	0.0244332	4.21204e+07	2.30831e+07	-6.08147e+06	
102781	0.0265642	-0.497946	0.431509	0.0666352	-0.0387918	0.0164057	4.21204e+07	2.30831e+07	-6.08147e+06	
102811	0.0224338	-0.499046	0.430571	0.0956983	-0.0228645	0.0122095	-4.36394e+07	-1.16259e+07	-9.91278e+06	
102841	0.0227593	-0.498732	0.432023	0.09308	-0.023562	0.0116147	1.00121e+07	6.17418e+07	2.13455e+07	
102871	0.0231491	-0.498731	0.431937	0.0951825	-0.0105963	0.0160973	4.12443e+06	13738	-900818	
102901	0.0225132	-0.49905	0.432403	0.0965436	-0.0105917	0.0158	-6.73211e+06	-3.38518e+06	4.92421e+06	
102931	0.0225132	-0.49905	0.432403	0.0882631	-0.0147555	0.0218568	-6.73211e+06	-3.38518e+06	4.92421e+06	
102961	0.022092	-0.499804	0.431896	0.0828101	-0.0174975	0.0258454	-4.46274e+06	-7.97966e+06	-5.36628e+06	
102991	0.0226582	-0.49979	0.431298	0.0791952	-0.023961	0.0214987	6.00303e+06	147872	-6.34513e+06	
103021	0.0227784	-0.499768	0.431654	0.0822568	-0.0238856	0.0182627	1.27442e+06	231033	3.77957e+06	
103051	0.0217217	-0.500645	0.430743	0.0830979	-0.0237331	0.0207572	-1.12167e+07	-9.30605e+06	-9.66951e+06	
103081	0.0250603	-0.501585	0.432747	0.0743489	-0.0309918	0.013215	3.54571e+07	-9.98444e+06	2.12816e+07	
103111	0.0247892	-0.501401	0.431496	0.102005	-0.0387797	0.0298146	-2.88024e+06	1.95406e+06	-1.32878e+07	
103141	0.0246348	-0.50051	0.430862	0.101746	-0.0386038	0.0286187	-1.64275e+06	9.47294e+06	-6.74976e+06	
103171	0.0239207	-0.500079	0.429803	0.101352	-0.0363303	0.0269988	-7.60022e+06	4.59111e+06	-1.12664e+07	
103201	0.0239703	-0.500088	0.431075	0.0983878	-0.0345398	0.0226049	528595	-97957.5	1.35407e+07	
103231	0.0241834	-0.501074	0.432125	0.0985464	-0.0345692	0.0266671	2.27069e+06	-1.05079e+07	1.11885e+07	
103261	0.0241834	-0.501074	0.432125	0.101271	-0.0471787	0.0400933	2.27069e+06	-1.05079e+07	1.11885e+07	
103321	0.0251255	-0.500603	0.431784	-0.00485151	0.000362293	4.43286e-11	7.54136e+06	-9.82778e+06	2.12189e+07	
103351	0.0258241	-0.500084	0.431197	-0.00326782	-0.00170154	0.00445597	7.46061e+06	5.5454e+06	-6.27518e+06	
103381	0.0254839	-0.500628	0.430491	-0.00102964	-3.79204e-05	0.00257341	-3.63526e+06	-5.81468e+06	-7.54216e+06	
103411	0.0255717	-0.501155	0.430424	-0.00255645	-0.00248009	-0.000594292	938509	-5.62883e+06	-716245	
103441	0.0245546	-0.500251	0.429464	-0.00210597	-0.00518192	-0.000938089	-1.08798e+07	9.6674e+06	-1.02634e+07	
103471	0.0253314	-0.498577	0.430363	-0.00896023	0.000908538	-0.00740403	8.313e+06	1.79173e+07	9.62245e+06	
103561	0.0243674	-0.500053	0.430552	-0.00383313	0.000286255	1.08063e-10	3.02319e+06	-8.33432e+06	3.35131e+06	
103591	0.0239468	-0.499264	0.429822	-0.00256339	-0.00321416	0.00140755	-4.51235e+06	8.46729e+06	-7.82934e+06	
103621	0.0228696	-0.500682	0.430669	-0.00351098	-0.00143603	-0.00023661	-1.15645e+07	-1.5229e+07	9.09183e+06	
103651	0.0229449	-0.500518	0.430089	-0.00802115	-0.00737534	0.0033092	808589	1.7651e+06	-6.22168e+06	
103681	0.023033	-0.499487	0.429893	-0.00773006	-0.0067399	0.0010694	946543	1.10845e+07	-2.1146e+06	
103711	0.023033	-0.499487	0.429893	-0.00653742	0.00722661	-0.001595	946543	1.10845e+07	-2.1146e+06	
103741	0.0228848	-0.499886	0.430201	-0.00577072	0.0162051	-0.00330783	-1.59369e+06	-4.29712e+06	3.3219e+06	
103771	0.0228848	-0.499886	0.430201	-0.00849593	0.00885699	0.00237262	-1.59369e+06	-4.29712e+06	3.3219e+06	
103801	0.0236645	-0.499671	0.430986	-0.00935652	0.00653654	0.00416645	8.39762e+06	2.32223e+06	8.44546e+06	
103831	0.0211691	-0.498344	0.429728	-0.00356216	0.00813888	0.00999382	-2.68905e+07	1.42915e+07	-1.35488e+07	
103861	0.0226437	-0.497972	0.430701	-0.0172763	0.0154275	0.00308395	1.59019e+07	4.01148e+06	1.04931e+07	
103921	0.0223462	-0.499669	0.430622	-0.00265844	0.000198538	6.56003e-11	2.42738e+06	-1.22304e+07	-8.134e+06	
103951	0.0222841	-0.500872	0.432139	-0.00200305	-0.00310368	-0.00219618	-670786	-1.30034e+07	1.639e+07	
104011	0.0232921	-0.500504	0.431827	-0.00244128	0.000182322	8.17118e-11	9.64094e+06	-7.53693e+06	9.47313e+06	
104041	0.0221161	-0.50019	0.430507	0.000161777	-0.00185265	0.00255775	-1.27272e+07	3.39771e+06	-1.42854e+07	
104071	0.0221161	-0.50019	0.430507	-0.014729	0.00212267	-0.0141562	-1.27272e+07	3.39771e+06	-1.42854e+07	
104101	0.0222833	-0.500668	0.429721	-0.0223654	0.00416129	-0.0227274	1.81149e+06	-5.18033e+06	-8.52015e+06	
104131	0.0219089	-0.500246	0.428966	-0.0211154	0.000586866	-0.0286063	-4.05766e+06	4.5763e+06	-8.18121e+06	
104161	0.0225059	-0.500942	0.430802	-0.0242804	0.00415638	-0.0349876	6.47323e+06	-7.55067e+06	1.99141e+07	
104191	0.0217252	-0.500153	0.428382	-0.0192313	-0.00173314	-0.0194546	-8.47087e+06	8.5645e+06	-2.62598e+07	
104221	0.0221967	-0.500075	0.429426	-0.0240597	0.00314862	-0.0344227	5.1197e+06	847070	1.1337e+07	
104251	0.0221967	-0.500075	0.429426	-0.0165337	0.00439382	-0.0177574	5.1197e+06	847070	1.1337e+07	
104281	0.0213132	-0.49951	0.426791	-0.0130011	0.00497829	-0.00993489	-9.60349e+06	6.14393e+06	-2.86414e+07	
104311	0.0219559	-0.499887	0.428828	-0.0141536	0.00571557	-0.0133719	-6.80346e+06	-4.24227e+06	1.58798e+07	
104341	0.0225097	-0.499534	0.428968	-0.0159905	0.00457015	-0.00908432	6.0276e+06	3.84414e+06	1.52676e+06	
104371	0.0225824	-0.499519	0.429878	-0.0141822	0.0057234	-0.0086263	791856	161608	9.90458e+06	
104401	0.0222024	-0.500054	0.429818	-0.0139447	0.00577188	-0.00565492	-4.14021e+06	-5.8257e+06	-648423	
104431	0.0231691	-0.500848	0.430132	-0.0143173	0.00524756	-0.00571328	1.05416e+07	-8.66404e+06	3.41594e+06	
104461	0.0231691	-0.500848	0.430132	-0.00388108	-0.00332983	-0.0023315	1.05416e+07	-8.66404e+06	3.41594e+06	
104491	0.022724	-0.502003	0.429936	0.00117889	-0.00748857	-0.000691852	-4.85787e+06	-1.26103e+07	-2.13506e+06	
104521	0.0227453	-0.50101	0.429472	-0.00159009	-0.0146765	-0.00190884	232155	1.08526e+07	-5.06797e+06	
104551	0.0225926	-0.500514	0.428841	-0.00144383	-0.00783933	-0.00510166	-1.66821e+06	5.41481e+06	-6.89103e+06	
104581	0.0223148	-0.501281	0.429626	-0.00269499	-0.00377822	-0.0102699	-3.03734e+06	-8.3779e+06	8.5762e+06	
104611	0.0219754	-0.500582	0.428741	-0.00506412	-0.010313	-0.00358049	-3.71273e+06	7.63798e+06	-9.67691e+06	
104641	0.0214779	-0.500303	0.428646	-0.00729176	-0.00573019	-0.00938664	-5.44533e+06	3.05258e+06	-1.03621e+06	
104671	0.0214779	-0.500303	0.428646	-0.0154598	-0.00115131	-0.0109409	-5.44533e+06	3.05258e+06	-1.03621e+06	
104701	0.0216325	-0.499776	0.428768	-0.0156231	-0.00105974	-0.010972	-5.47425e+06	3.52118e+06	6.89557e+06	
104731	0.0216325	-0.499776	0.428768	-0.0207142	0.00221497	-0.00455916	-5.47425e+06	3.52118e+06	6.89557e+06	
104761	0.0216325	-0.499776	0.428768	-0.030732	0.00865873	0.00805973	-5.47425e+06	3.52118e+06	6.89557e+06	
104821	0.022711	-0.499839	0.429081	-0.00108378	8.09454e-05	1.24929e-10	9.50293e+06	-1.23225e+07	3.16662e+06	
104851	0.022711	-0.499839	0.429081	0.00917939	-0.0132274	0.00341995	9.50293e+06	-1.23225e+07	3.16662e+06	
104881	0.0225796	-0.500656	0.429229	0.0131706	-0.0184028	0.00474993	-1.44564e+06	-8.98466e+06	1.61792e+06	
104911	0.0222389	-0.501047	0.429145	0.0123466	-0.0235241	0.00567214	-3.74828e+06	-4.30224e+06	-921179	
104941	0.0222551	-0.499837	0.428457	0.00964785	-0.0266217	0.00500889	178265	1.33159e+07	-7.57385e+06	
104971	0.0222708	-0.499853	0.427738	0.0097655	-0.0178332	1.01552e-05	173522	-169564	-7.91596e+06	
105001	0.0225176	-0.500888	0.427247	0.00989564	-0.0179604	-0.00592681	2.71955e+06	-1.14067e+07	-5.41493e+06	
105031	0.0225176	-0.500888	0.427247	0.0143829	-0.0367814	-0.0148614	2.71955e+06	-1.14067e+07	-5.41493e+06	
105091	0.0214933	-0.500153	0.429922	-0.000826763	6.17511e-05	1.4135e-10	677337	-2.05918e+06	1.12462e+07	
105121	0.0214538	-0.499971	0.429294	-0.000664202	-0.000432451	0.00269909	-436327	2.00875e+06	-6.94024e+06	
105151	0.0209358	-0.499331	0.429194	-0.000755831	-1.0614e-05	0.00124164	-5.72696e+06	7.0809e+06	-1.10319e+06	
105181	0.0209859	-0.499483	0.429407	-0.00281754	0.00253851	0.000844491	554240	-1.6888e+06	2.36211e+06	
105211	0.0209859	-0.499483	0.429407	-0.00211919	0.00041062	0.00382074	554240	-1.6888e+06	2.36211e+06	
105271	0.0212428	-0.500315	0.429305	-0.000690254	5.15559e-05	1.31772e-10	2.33078e+06	-3.59944e+06	-547088	
105301	0.0215388	-0.501361	0.429438	8.97925e-06	-0.00102828	-0.000164126	3.28158e+06	-1.159e+07	1.47476e+06	
105331	0.021057	-0.500161	0.428898	0.00119035	-0.00520066	0.000366786	-5.34375e+06	1.33033e+07	-5.98446e+06	
105361	0.0213048	-0.500369	0.429275	-0.00121434	0.000785836	-0.00232622	2.75e+06	-2.30749e+06	4.18435e+06	
105391	0.0209745	-0.499921	0.429192	0.000353159	-0.000529432	5.88609e-05	-3.66747e+06	4.98136e+06	-925098	
105421	0.0223686	-0.500832	0.430085	-0.00206737	0.00275827	-0.000551704	1.54871e+07	-1.01215e+07	9.91838e+06	
105451	0.0231519	-0.500585	0.430437	0.00164953	0.000329097	0.00182871	8.7081e+06	2.73697e+06	3.92068e+06	
105481	0.0233539	-0.500661	0.430385	0.00478445	0.0013144	0.00324015	2.24781e+06	-834782	-581005	
105511	0.0231856	-0.500204	0.430158	0.00512162	0.00118919	0.003153	-1.87372e+06	5.08489e+06	-2.52923e+06	
105541	0.0231656	-0.500103	0.430152	0.00461571	0.00256211	0.00247011	-223276	1.12332e+06	-66515.4	
105631	0.023064	-0.499812	0.43006	-0.000481136	3.59375e-05	3.68603e-10	319646	-1.10527e+06	-350773	
105661	0.0226189	-0.500077	0.43034	-0.000318116	-0.000527749	-0.000178894	-4.96776e+06	-2.96063e+06	3.12872e+06	
105691	0.0227154	-0.500277	0.4307	-0.00374587	-0.00257058	0.00197992	1.07742e+06	-2.22676e+06	4.01654e+06	
105720	0.0227154	-0.500277	0.4307	-0.00206509	-0.00604433	0.00824573	1.07742e+06	-2.22676e+06	4.01654e+06	
105751	0.0227154	-0.500277	0.4307	0.000617697	-0.011589	0.0182469	1.07742e+06	-2.22676e+06	4.01654e+06	
105781	0.0226031	-0.500452	0.430373	0.00103789	-0.0124574	0.0198134	-1.2569e+06	-1.95709e+06	-3.65647e+06	
105811	0.0232104	-0.500286	0.430393	0.000434582	-0.0133968	0.0180583	6.79805e+06	1.84764e+06	215489	
105841	0.0226084	-0.500203	0.43031	0.00410553	-0.0123991	0.0181746	-6.74238e+06	933450	-921402	
105871	0.0228134	-0.500634	0.430601	-0.000344438	-0.011783	0.0175665	2.29773e+06	-4.8279e+06	3.25185e+06	
105901	0.0228271	-0.500671	0.430425	0.00130993	-0.0152591	0.0199078	152615	-418755	-1.96195e+06	
105961	0.0227773	-0.500271	0.43054	-0.000345612	2.58149e-05	8.15601e-11	-38028.5	5.76596e+06	2.11773e+06	
105991	0.0227773	-0.500271	0.43054	-0.000385542	0.00608008	0.00222361	-38028.5	5.76596e+06	2.11773e+06	
106021	0.0226807	-0.500543	0.43035	-0.000408359	0.00953965	0.00349425	-1.08566e+06	-3.05362e+06	-2.1412e+06	
106051	0.0227145	-0.500247	0.430285	-0.00112489	0.00752426	0.00208106	380340	3.32839e+06	-726900	
106081	0.0225573	-0.499903	0.430272	-0.000873869	0.009721	0.0016013	-1.7686e+06	3.87023e+06	-149802	
106111	0.0226854	-0.500145	0.430197	-0.00204114	0.0122754	0.00150243	1.44237e+06	-2.73178e+06	-843373	
106141	0.022653	-0.500242	0.430161	-0.00104591	0.0103904	0.000920506	-364870	-1.08362e+06	-401866	
106171	0.0228183	-0.50023	0.430471	-0.00127577	0.00970775	0.00066733	1.86294e+06	128323	3.49316e+06	
106201	0.0228183	-0.50023	0.430471	0.00157452	0.00990408	0.00601186	1.86294e+06	128323	3.49316e+06	
106231	0.0224555	-0.502926	0.430012	0.00190985	0.00992718	0.00664063	-4.09463e+06	-3.04155e+07	-5.17368e+06	
106261	0.022525	-0.502907	0.429877	0.000804299	0.00171501	0.00524373	785215	211910	-1.52567e+06	
106291	0.022268	-0.503519	0.429609	0.00111053	0.00179765	0.00464872	-2.90294e+06	-6.91309e+06	-3.03272e+06	
106321	0.0220759	-0.503098	0.429623	-0.000457054	-0.00193542	0.00301105	-2.17074e+06	4.76166e+06	158457	
106351	0.0222051	-0.50351	0.429566	-0.00195486	0.00135013	0.00312039	1.46052e+06	-4.65906e+06	-639158	
106381	0.0221844	-0.503146	0.429554	-0.000728028	-0.00256347	0.00258349	-233687	4.11788e+06	-143081	
106411	0.021858	-0.502268	0.429416	-0.000833187	-0.000710431	0.00251911	-3.69568e+06	9.93894e+06	-1.5613e+06	
106441	0.0218562	-0.502317	0.429488	-0.00238537	0.00346392	0.00186336	-20299.8	-564296	822705	
106471	0.0220887	-0.501327	0.429688	-0.00239573	0.00317613	0.00228294	2.63492e+06	1.12265e+07	2.25791e+06	
106501	0.02247	-0.501574	0.429416	-0.00105192	0.00890164	0.00343447	4.32409e+06	-2.80432e+06	-3.07898e+06	
106531	0.0224309	-0.502147	0.42913	0.00154254	0.00721905	0.00158708	-443460	-6.4965e+06	-3.24636e+06	
106561	0.0223342	-0.501778	0.429303	0.00120994	0.00234668	-0.000847685	-1.09851e+06	4.1889e+06	1.95909e+06	
106591	0.0223509	-0.501971	0.429354	0.00107812	0.00284935	-0.000612594	190096	-2.19318e+06	587488	
106621	0.0207293	-0.501664	0.429306	0.00111804	0.00238878	-0.000489222	-1.8432e+07	3.49003e+06	-548572	
106651	0.0223291	-0.501738	0.429091	-0.00607045	0.00374989	-0.000703165	1.81929e+07	-847906	-2.44332e+06	
106681	0.0223291	-0.501738	0.429091	0.0173984	0.00265609	-0.00385505	1.81929e+07	-847906	-2.44332e+06	
106711	0.0223291	-0.501738	0.429091	0.057241	0.000799178	-0.00920592	1.81929e+07	-847906	-2.44332e+06	
106741	0.0222702	-0.501502	0.429007	0.0637904	0.000493932	-0.0100855	-670820	2.68708e+06	-960066	
106771	0.0219202	-0.500811	0.429128	0.0634886	0.00170312	-0.0105175	-3.98997e+06	7.88481e+06	1.38333e+06	
106801	0.0221764	-0.50075	0.429416	0.061334	0.00596092	-0.00977054	2.9224e+06	689054	3.28284e+06	
106831	0.0221901	-0.50099	0.429367	0.0619477	0.00610562	-0.00908115	155992	-2.73463e+06	-565551	
106861	0.0238599	-0.501241	0.428981	0.0619945	0.00528523	-0.00925081	1.90637e+07	-2.87069e+06	-4.39879e+06	
106891	0.0238573	-0.501204	0.42916	0.0682855	0.0043379	-0.0107024	-29239.5	427574	2.04464e+06	
106921	0.0238088	-0.500979	0.429263	0.0682723	0.00453031	-0.00978232	-554390	2.56373e+06	1.17227e+06	
106951	0.0237725	-0.501217	0.429244	0.0681726	0.00499178	-0.00957131	-415260	-2.72003e+06	-210441	
106981	0.0237936	-0.501053	0.429306	0.0681227	0.00466538	-0.00959657	242062	1.87685e+06	705145	
107011	0.0235956	-0.501336	0.429515	0.0681445	0.00483429	-0.0095331	-2.2674e+06	-3.23425e+06	2.39361e+06	
107041	0.0221121	-0.500858	0.429856	0.0676684	0.0041551	-0.00903044	-1.69958e+07	5.46868e+06	3.90602e+06	
107071	0.0221302	-0.500849	0.429717	0.0661387	0.00464728	-0.0086789	207523	105888	-1.59342e+06	
107101	0.022543	-0.501505	0.429667	0.0661885	0.0046727	-0.00906132	4.73424e+06	-7.52368e+06	-569679	
107131	0.022543	-0.501505	0.429667	0.0715856	-0.0039043	-0.00971076	4.73424e+06	-7.52368e+06	-569679	
107161	0.0223396	-0.501629	0.429531	0.0747102	-0.00886993	-0.0100867	-2.33435e+06	-1.41754e+06	-1.56317e+06	
107191	0.0223396	-0.501629	0.429531	0.0710686	-0.0110813	-0.0125253	-2.33435e+06	-1.41754e+06	-1.56317e+06	
107221	0.0219555	-0.50153	0.429499	0.0695279	-0.0120169	-0.013557	-4.41446e+06	1.13394e+06	-364908	
107251	0.0228241	-0.501369	0.431614	0.0660846	-0.0111324	-0.0138416	9.98636e+06	1.84888e+06	2.43084e+07	
107281	0.022191	-0.501875	0.429677	0.0666838	-0.0110215	-0.0123831	-864134	2.50395e+06	-1.5139e+06	
107311	0.022371	-0.50206	0.429614	0.0664764	-0.0104205	-0.0127465	2.07258e+06	-2.12621e+06	-727815	
107401	0.022825	-0.502213	0.429591	-8.24093e-05	6.15616e-06	4.05081e-10	5.75723e+06	-78685.6	3.10252e+06	
107431	0.0223388	-0.501925	0.429297	-8.24093e-05	6.15616e-06	4.05081e-10	-5.60919e+06	3.32389e+06	-3.39279e+06	
107461	0.0228046	-0.501803	0.429164	-0.000923788	0.000504739	-0.000508918	3.96606e+06	1.99821e+06	-1.49105e+06	
107491	0.0226362	-0.501845	0.429457	-0.000566843	0.000684578	-0.000643112	-1.94572e+06	-481741	3.39448e+06	
107521	0.0226362	-0.501845	0.429457	-0.0024931	0.000207654	0.00271742	-1.94572e+06	-481741	3.39448e+06	
107551	0.0226522	-0.502413	0.42947	-0.00366053	-8.1391e-05	0.00475411	184765	-6.57091e+06	151415	
107581	0.0225982	-0.502162	0.429341	-0.00354413	-0.00422106	0.0048495	-624925	2.91192e+06	-1.50038e+06	
107610	0.0226639	-0.502402	0.429173	-0.00369411	-0.0035222	0.00448941	760976	-2.78921e+06	-1.94394e+06	
107641	0.0220333	-0.502383	0.429175	-0.00339733	-0.00460999	0.00373127	-7.30522e+06	227748	19766.8	
107671	0.0220333	-0.502383	0.429175	-0.0128211	-0.0043162	0.00375677	-7.30522e+06	227748	19766.8	
107701	0.0220591	-0.501905	0.429072	-0.0145743	-0.00426154	0.00376151	299764	5.54397e+06	-1.1926e+06	
107730	0.022132	-0.502242	0.429211	-0.0144754	-0.00243203	0.00336795	845249	-3.91485e+06	1.61845e+06	
107761	0.022009	-0.502227	0.429068	-0.0140697	-0.00431116	0.00414481	-1.42746e+06	179580	-1.66101e+06	
107791	0.0219962	-0.502079	0.429166	-0.014969	-0.00419802	0.00309838	-148212	1.7096e+06	1.13614e+06	
107821	0.022082	-0.502283	0.42907	-0.0150757	-0.00296711	0.0039164	996053	-2.36481e+06	-1.11171e+06	
107850	0.0220309	-0.502011	0.429096	-0.0150458	-0.00303805	0.00388305	593662	-96651.4	-152744	
107911	0.022056	-0.501478	0.429002	-4.91756e-05	3.67365e-06	3.07946e-10	292069	6.20303e+06	-1.08658e+06	
107941	0.0220865	-0.501186	0.429015	3.3968e-06	0.00112022	-0.000195584	355161	3.39641e+06	150394	
107970	0.0220139	-0.501191	0.429012	8.86354e-05	0.00193536	-0.000159489	-845581	-51021.3	-34158.3	
108001	0.0219447	-0.501373	0.429042	-0.000241141	0.00191546	-0.000172811	-807947	-2.12446e+06	341748	
108031	0.0219628	-0.501283	0.429081	-0.000628956	0.000895717	-8.77172e-06	211400	1.04307e+06	457046	
108061	0.0219458	-0.501467	0.429106	-0.000502116	0.00152156	0.000265456	-198511	-2.14084e+06	290121	
108091	0.0219281	-0.501498	0.429001	-0.000597401	0.000493957	0.000404714	-206354	-360930	-1.22058e+06	
108121	0.0219281	-0.501498	0.429001	-0.00088217	-4.12637e-06	-0.00127968	-206354	-360930	-1.22058e+06	
108151	0.0219503	-0.502012	0.429043	-0.000975029	-0.000166545	-0.00182894	259942	-6.01434e+06	491038	
108181	0.0219503	-0.502012	0.429043	-0.000624108	-0.00828591	-0.00116604	259942	-6.01434e+06	491038	
108211	0.021967	-0.501589	0.429253	-0.000561722	-0.00972935	-0.00104819	194954	4.94686e+06	2.45432e+06	
108241	0.0220162	-0.501384	0.429123	-0.000491538	-0.00794848	-0.000164635	576696	2.4077e+06	-1.52258e+06	
108271	0.0219771	-0.501787	0.429135	-0.000180122	-0.00664832	-0.000986827	-458220	-4.72191e+06	137806	
108301	0.0220613	-0.501777	0.429247	-0.000386321	-0.00877318	-0.000924814	986650	117010	1.32235e+06	
108331	0.0220261	-0.501704	0.429203	0.000205669	-0.00870297	-0.000131405	-412201	857312	-525702	
108361	0.0220209	-0.50162	0.429178	-1.69193e-05	-0.00824002	-0.000415284	-60744	984532	-283037	
108391	0.0220471	-0.501529	0.429104	-5.33657e-05	-0.0076493	-0.000585106	307390	1.06782e+06	-873075	
108421	0.0220891	-0.501688	0.429164	0.000121846	-0.00704065	-0.00108276	492830	-1.86572e+06	699644	
108451	0.0220069	-0.501607	0.429198	0.000417544	-0.00816008	-0.000662972	-965688	947751	405182	
108481	0.0220069	-0.501607	0.429198	-0.00103099	-0.00673845	-5.51991e-05	-965688	947751	405182	
108511	0.0220305	-0.50193	0.429166	-0.00166834	-0.00611293	0.000212221	277278	-3.79899e+06	-372433	
108541	0.0220078	-0.502046	0.429154	-0.0014687	-0.00884821	-5.59306e-05	-267128	-1.36513e+06	-148963	
108571	0.0220115	-0.501749	0.429183	-0.00169309	-0.00999491	-0.000181059	43950.9	3.49859e+06	346581	
108631	0.0219899	-0.501791	0.429135	-2.38926e-05	1.78512e-06	4.27607e-10	-392302	511439	427439	
108661	0.0219899	-0.501791	0.429135	-0.000753574	0.000953062	0.000795037	-392302	511439	427439	
108691	0.0219815	-0.501337	0.429165	-0.000941879	0.00119855	0.00100021	-98876.8	5.3555e+06	348301	
108721	0.0219409	-0.501339	0.429194	-0.00100417	0.00457252	0.00121964	-479490	-15341	344516	
108751	0.021926	-0.501407	0.429147	-0.00137817	0.00456055	0.00148836	-176640	-806433	-555601	
108781	0.0219532	-0.501202	0.429104	-0.00139407	0.00448798	0.00143835	228498	116320	-150558	
108811	0.0219553	-0.501297	0.42915	-0.00133238	0.00451938	0.0013977	24866.2	-1.12376e+06	540140	
108841	0.0219604	-0.501291	0.429168	-0.00132268	0.00408112	0.00160836	60218.2	69417	211327	
108871	0.0219604	-0.501291	0.429168	-0.001245	0.00417067	0.00188097	60218.2	69417	211327	
108901	0.0218928	-0.501192	0.429139	-0.00123958	0.00417691	0.00189999	-187651	2.29811e+06	-1.1473e+06	
108961	0.022001	-0.501099	0.42916	-1.72489e-05	1.28887e-06	4.77043e-10	1.28416e+06	1.10391e+06	247368	
108991	0.0220134	-0.500965	0.429225	0.000984392	0.00086234	0.000192947	147085	1.59577e+06	772118	
109021	0.0220387	-0.501688	0.42919	0.00099763	0.00100596	0.000262438	287098	-4.8484e+06	-382687	
109051	0.0220387	-0.501688	0.42919	0.00128186	-0.00379396	-0.000116422	287098	-4.8484e+06	-382687	
109081	0.0219944	-0.501273	0.429208	0.00153163	-0.00801206	-0.00044936	-527212	4.92863e+06	220138	
109111	0.0219879	-0.501178	0.429246	0.00142092	-0.00697705	-0.000403131	-76862.5	1.13663e+06	447320	
109141	0.0219879	-0.501178	0.429246	0.0013356	-0.0057154	9.33943e-05	-76862.5	1.13663e+06	447320	
109171	0.0219879	-0.501178	0.429246	0.00118111	-0.00343078	0.000992508	-76862.5	1.13663e+06	447320	
109201	0.0220133	-0.50146	0.429146	0.00113268	-0.0027147	0.00127432	302544	-3.37085e+06	-1.18552e+06	
109261	0.022072	-0.501184	0.429173	-1.27691e-05	9.54022e-07	1.54303e-10	-252485	1.40415e+06	-172696	
109291	0.0220735	-0.501404	0.429206	-2.79182e-05	8.52032e-05	-1.03616e-05	18083.1	-2.62834e+06	392568	
109321	0.0220735	-0.501404	0.429206	-1.05584e-05	-0.002438	0.000366503	18083.1	-2.62834e+06	392568	
109351	0.022049	-0.501092	0.429177	4.63142e-06	-0.00464581	0.00069626	-292946	3.73304e+06	-353797	
109381	0.0220646	-0.501053	0.429194	-2.17337e-05	-0.00430984	0.000664418	-138077	676796	-440250	
109441	0.0220606	-0.501507	0.429159	-1.0607e-05	7.92709e-07	2.82371e-10	-47819.7	-5.43263e+06	-426298	
109501	0.0221843	-0.502798	0.429309	-9.98823e-06	7.46239e-07	1.03178e-10	446132	-6.08674e+06	151657	
109531	0.0221879	-0.502803	0.429282	0.000137235	-0.00200788	5.00469e-05	43410.8	-52059.6	-319477	
109561	0.022175	-0.502681	0.429276	0.000151561	-0.00202506	-5.53803e-05	-154316	1.45936e+06	-80135.5	
109591	0.0221695	-0.502359	0.429174	7.28595e-05	-0.00128079	-9.62494e-05	-66196.4	3.86289e+06	-1.2226e+06	
109621	0.0221695	-0.502359	0.429174	-2.04775e-05	0.00416589	-0.00182012	-66196.4	3.86289e+06	-1.2226e+06	
109651	0.0220593	-0.50186	0.429247	-2.84211e-05	0.00462943	-0.00196683	-1.32466e+06	5.99807e+06	875916	
109681	0.0220331	-0.502061	0.429347	-0.00034634	0.00606897	-0.00175661	-315211	-2.41571e+06	1.21232e+06	
109711	0.0219838	-0.501009	0.429273	-0.000469272	0.00512684	-0.00128381	-594216	1.26671e+07	-900391	
109741	0.0220597	-0.500839	0.429232	-0.000754496	0.011207	-0.00171599	914958	2.04597e+06	-495302	
109771	0.0221118	-0.500805	0.429211	-0.000178072	0.012496	-0.00202803	627481	405716	-241285	
109801	0.0220812	-0.501126	0.429266	0.000311363	0.0128125	-0.00221624	-368938	-3.86947e+06	662495	
109831	0.0220812	-0.501126	0.429266	-0.000308452	0.00631174	-0.00110324	-368938	-3.86947e+06	662495	
109861	0.0220793	-0.501168	0.429262	-0.000419133	0.0051509	-0.000904496	-23557.4	-509870	-54165.3	
109891	0.0220396	-0.501657	0.429322	-0.000429027	0.00493675	-0.000927245	-478957	-5.89382e+06	726427	
109921	0.022053	-0.501934	0.429303	-0.000630189	0.00246135	-0.000622146	161961	-3.35719e+06	-230773	
109951	0.0220288	-0.501695	0.42929	-0.000576742	0.00135347	-0.000698301	-292591	2.89245e+06	-162759	
109981	0.0220517	-0.501654	0.429296	-0.000725964	0.00282862	-0.000781308	276318	502397	75359.5	
110071	0.0220753	-0.501086	0.429223	-5.66837e-06	4.23838e-07	4.22654e-10	-19034.4	4.44158e+06	-609998	
110101	0.0220965	-0.500974	0.429143	-2.22283e-05	0.0038646	-0.000530698	256467	1.36453e+06	-970812	
110131	0.0220965	-0.500974	0.429143	0.000431719	0.00627982	-0.00224904	256467	1.36453e+06	-970812	
110161	0.0220467	-0.501334	0.429236	0.000577906	0.0070576	-0.0028024	-603873	-4.37646e+06	1.13090e+06	
110191	0.0221551	-0.500895	0.429186	0.000143117	0.00390654	-0.00198815	1.31514e+06	5.33788e+06	-605104	
110221	0.0220226	-0.501078	0.429273	0.00128729	0.0085505	-0.00251459	-1.60866e+06	-2.22693e+06	1.05491e+06	
110251	0.0220204	-0.501132	0.429266	0.000659912	0.007682	-0.00210317	-26794.8	-655473	-81145.2	
110281	0.0219227	-0.501264	0.429378	0.000654285	0.00754435	-0.00212021	-1.18758e+06	-1.60592e+06	1.35375e+06	
110311	0.0219089	-0.501202	0.429288	0.000226756	0.00696622	-0.00163286	-167886	751424	-1.08945e+06	
110341	0.0218555	-0.500975	0.429161	0.000166317	0.00723673	-0.00202506	-649895	2.76304e+06	-1.55243e+06	
110371	0.0218165	-0.501122	0.429167	-0.00016513	0.00864588	-0.00281681	-475106	-1.78805e+06	78153.8	
110401	0.0218165	-0.501122	0.429167	-0.000835029	0.00612473	-0.00270661	-475106	-1.78805e+06	78153.8	
110491	0.0219057	-0.500912	0.42919	-3.72025e-06	2.78277e-07	2.95098e-10	169564	2.98189e+06	-378394	
110581	0.0218359	-0.50121	0.429091	-3.41639e-06	2.55759e-07	2.97475e-10	-328971	2.66441e+06	-558089	
110611	0.0218359	-0.50121	0.429091	-0.000605433	0.00487612	-0.0010213	-328971	2.66441e+06	-558089	
110641	0.0219059	-0.501584	0.42909	-0.000792946	0.00639484	-0.00133941	856439	-4.57811e+06	-16796.3	
110671	0.0220324	-0.501674	0.429158	-0.00025339	0.00351063	-0.00134999	1.54882e+06	-1.10094e+06	834334	
110701	0.0219288	-0.501279	0.42915	0.000908225	0.00268492	-0.000724244	-1.26788e+06	4.84068e+06	-105874	
110761	0.0218835	-0.500982	0.429031	-2.82421e-06	2.1105e-07	5.57936e-11	-956038	1.55719e+06	-611136	
110791	0.0218835	-0.500982	0.429031	-0.00100666	0.00163526	-0.000641693	-956038	1.55719e+06	-611136	
110821	0.0218816	-0.500819	0.429019	-0.00183842	0.00299002	-0.00117338	-23080.5	2.00399e+06	-148444	
110851	0.0219431	-0.50093	0.429049	-0.00185434	0.00437277	-0.00127581	755830	-1.36375e+06	364516	
110881	0.0219109	-0.501189	0.429088	-0.00121945	0.00322723	-0.000969615	-396676	-3.18457e+06	478643	
110911	0.0218273	-0.501044	0.429114	-0.00150505	0.000934335	-0.000624992	-1.02786e+06	1.78484e+06	320660	
110941	0.0219067	-0.500901	0.429148	-0.00156672	0.00104143	-0.000605752	434529	-1.18523e+06	839611	
110971	0.0219067	-0.500901	0.429148	-0.00114958	-9.63905e-05	0.000200274	434529	-1.18523e+06	839611	
111001	0.0218901	-0.501066	0.429186	-0.00109743	-0.000238618	0.000301027	-204981	-2.02924e+06	461606	
111031	0.0218263	-0.500892	0.429165	-0.00114663	-0.000725635	0.000411813	-787041	2.13536e+06	-255145	
111061	0.0218407	-0.500698	0.42926	-0.00145357	0.000107154	0.000312306	178093	2.40027e+06	1.16926e+06	
111091	0.0218407	-0.500698	0.42926	-0.00122383	0.0032035	0.00182065	178093	2.40027e+06	1.16926e+06	
111121	0.0218407	-0.500698	0.42926	-0.00083381	0.0084601	0.00438132	178093	2.40027e+06	1.16926e+06	
111181	0.022209	-0.501314	0.42951	-1.86295e-06	1.39305e-07	1.25485e-10	4.78476e+06	-495633	244836	
111211	0.0221905	-0.500965	0.429552	0.00172065	-0.000178288	8.81411e-05	-229436	4.30995e+06	512369	
111241	0.0219598	-0.501369	0.429454	0.00160364	0.00201979	0.000349449	-2.85374e+06	-4.9975e+06	-1.20325e+06	
111271	0.0218285	-0.501286	0.42954	-0.000194218	-0.00112864	-0.000408601	-1.6252e+06	1.03119e+06	1.06057e+06	
111301	0.0218351	-0.501116	0.429475	-0.00146188	-0.00032431	0.000418644	81502	2.1028e+06	-811633	
111331	0.0220213	-0.500942	0.429472	-0.00145699	-0.000198142	0.000369946	1.30949e+06	-2.79267e+06	274485	
111361	0.0220213	-0.500942	0.429472	-0.000199874	-0.0028791	0.000633452	1.30949e+06	-2.79267e+06	274485	
111391	0.0267333	-0.500617	0.429731	0.000271544	-0.00388446	0.000732267	5.84534e+07	4.03308e+06	3.20704e+06	
111421	0.0268937	-0.500231	0.429609	0.0213148	-0.00243255	0.0018868	1.99043e+06	4.79911e+06	-1.51299e+06	
111451	0.0268702	-0.501245	0.42979	0.0223299	1.4994e-05	0.00111518	-291874	-1.25976e+07	2.24885e+06	
111481	0.0268089	-0.501319	0.429807	0.0221985	-0.00565394	0.00212716	-761302	-915821	212939	
111511	0.0268737	-0.501076	0.429772	0.0218331	-0.00609353	0.00222937	805449	3.01636e+06	-431633	
111541	0.0266041	-0.502026	0.429947	0.022268	-0.0044647	0.00199629	-3.35361e+06	-1.18094e+07	2.1754e+06	
111571	0.0266041	-0.502026	0.429947	0.0174388	-0.0214703	0.00512886	-3.35361e+06	-1.18094e+07	2.1754e+06	
111601	0.0265157	-0.501405	0.429902	0.0165334	-0.0246588	0.00571622	-1.10071e+06	7.73164e+06	-567735	
111631	0.0265936	-0.501061	0.429834	0.0161041	-0.0216435	0.0054948	970833	4.28657e+06	-843449	
111661	0.0266033	-0.50056	0.429784	0.0165992	-0.0194573	0.00506464	121432	6.23888e+06	-617276	
111691	0.0266616	-0.499983	0.429748	0.0166794	-0.0153397	0.00465724	726608	7.19322e+06	-451947	
111721	0.0265822	-0.500367	0.429905	0.0171589	-0.0105921	0.00435895	-990322	-4.78757e+06	1.95085e+06	
111751	0.0266662	-0.500361	0.429812	0.0163568	-0.0144701	0.00593914	1.04859e+06	76402	-1.15761e+06	
111781	0.0256243	-0.49984	0.429417	0.0167657	-0.0144403	0.00548768	-1.30162e+07	6.50531e+06	-4.93668e+06	
111811	0.0257036	-0.499342	0.429233	0.0112989	-0.011708	0.00341427	991018	6.22725e+06	-2.29737e+06	
111841	0.0259888	-0.499128	0.429191	0.0116557	-0.00946623	0.00258722	3.56755e+06	2.68049e+06	-523758	
111871	0.0260154	-0.499725	0.429326	0.013154	-0.00834042	0.00236724	332763	-7.47831e+06	1.68949e+06	
111901	0.0259037	-0.500488	0.429419	0.0132738	-0.0110326	0.00297546	-1.39889e+06	-9.5534e+06	1.15917e+06	
111931	0.0259037	-0.500488	0.429419	0.0115112	-0.0230699	0.00443601	-1.39889e+06	-9.5534e+06	1.15917e+06	
111991	0.0261426	-0.499923	0.429337	-8.26562e-07	6.21219e-08	3.43747e-10	3.68957e+06	3.9808e+06	-366414	
112021	0.0261854	-0.499664	0.429024	0.00309841	0.00334393	-0.000307787	536287	3.25739e+06	-3.92366e+06	
112051	0.0263837	-0.49972	0.429282	0.00351671	0.0058847	-0.00336824	2.48884e+06	-710415	3.23132e+06	
112081	0.0263837	-0.49972	0.429282	0.00769796	0.0046912	0.00206037	2.48884e+06	-710415	3.23132e+06	
112111	0.0263143	-0.49948	0.429291	0.00941526	0.00420101	0.00428998	-871861	3.0215e+06	123041	
112141	0.0263405	-0.499982	0.429726	0.00931064	0.00456359	0.00430474	-753381	-4.19965e+06	3.24571e+06	
112201	0.0264042	-0.499883	0.429644	-6.69958e-07	5.02286e-08	1.38284e-10	-117345	4.35552e+06	-1.1295e+06	
112231	0.0263486	-0.500167	0.429631	-1.82717e-05	0.000653378	-0.000169425	-699213	-3.57651e+06	-163524	
112261	0.0262632	-0.500243	0.429635	-0.000228036	-0.000419576	-0.000218483	-1.07656e+06	-952604	49546.6	
112291	0.0264377	-0.499977	0.429666	-0.000712487	-0.000848247	-0.000196187	2.20002e+06	3.34729e+06	393276	
112321	0.0264377	-0.499977	0.429666	0.00225754	0.00367059	0.000334736	2.20002e+06	3.34729e+06	393276	
112351	0.0263768	-0.500299	0.429413	0.00344555	0.00547813	0.000547105	-768656	-4.05425e+06	-3.19668e+06	
112381	0.0262857	-0.500335	0.429391	0.00291518	0.0026807	-0.00165861	-1.15023e+06	-464098	-269748	
112411	0.0264085	-0.500379	0.429396	0.00194898	0.00229086	-0.00188519	1.55113e+06	-548638	53411.4	
112441	0.0264865	-0.500024	0.429486	0.00306579	0.00189584	-0.00184674	985954	4.48365e+06	1.14295e+06	
112471	0.026202	-0.499382	0.429478	0.00395315	0.00593112	-0.000818087	-3.59779e+06	8.12081e+06	-95676.9	
112501	0.0262628	-0.499295	0.429549	0.00114687	0.0122654	-0.000892715	769897	1.0972e+06	889771	
112531	0.0263163	-0.499281	0.429444	0.00137784	0.0125945	-0.000625784	677267	173779	-1.32917e+06	
112561	0.0263163	-0.499281	0.429444	0.00219056	0.012803	-0.00222079	677267	173779	-1.32917e+06	
112591	0.0263163	-0.499281	0.429444	0.00361282	0.013168	-0.00501205	677267	173779	-1.32917e+06	
112651	0.0264014	-0.499001	0.429435	-4.26709e-07	3.19732e-08	9.59567e-11	-1.02678e+06	-85670.4	-113443	
112681	0.0265326	-0.498742	0.429428	-0.000370067	-3.08094e-05	-4.08393e-05	1.66622e+06	3.29495e+06	-79583.5	
112741	0.0264572	-0.499134	0.429502	5.49951e-10	4.61297e-10	4.28039e-10	-958496	-4.9882e+06	932606	
112771	0.0264929	-0.498921	0.429278	-0.000661362	-0.00344185	0.000643499	453885	2.70681e+06	-2.84356e+06	
112801	0.0262691	-0.499318	0.429334	-0.000320948	-0.00141175	-0.00148917	-2.84612e+06	-5.0483e+06	708177	
112831	0.0262927	-0.499449	0.429378	-0.00288246	-0.00595522	-0.000851813	300052	-1.66479e+06	562167	
112861	0.0264747	-0.4996	0.429381	-0.00275644	-0.00665443	-0.000615703	2.31764e+06	-1.92313e+06	38736.6	
112891	0.0263199	-0.499692	0.429345	-0.00143538	-0.00775061	-0.000593623	-1.97157e+06	-1.17254e+06	-462682	
112921	0.0261191	-0.499894	0.429418	-0.002086	-0.00813755	-0.000746309	-2.56062e+06	-2.57224e+06	940648	
112951	0.026072	-0.500033	0.429464	-0.00270055	-0.00875489	-0.000520553	-600878	-1.7764e+06	582985	
112981	0.0259362	-0.500254	0.429543	-0.00295292	-0.00950097	-0.000275699	-1.73257e+06	-2.82148e+06	1.01119e+06	
113011	0.0259656	-0.500061	0.429584	-0.00362862	-0.0106014	0.000118664	374934	2.46589e+06	521029	
113041	0.0259656	-0.500061	0.429584	-0.00314495	-0.00742036	0.000790791	374934	2.46589e+06	521029	
113071	0.0259656	-0.500061	0.429584	-0.00232385	-0.00202006	0.00193184	374934	2.46589e+06	521029	
113101	0.0259656	-0.500061	0.429584	-0.0011653	0.00559953	0.00354182	374934	2.46589e+06	521029	
113131	0.0262423	-0.500088	0.42966	-0.00096284	0.00693111	0.00382318	3.54072e+06	-348851	970613	
113161	0.0260952	-0.500021	0.429636	0.00148026	0.00669041	0.0044929	-1.88341e+06	866578	-308644	
113191	0.0260795	-0.500304	0.429667	-0.000101809	0.00741833	0.00423364	-201093	-3.62461e+06	403790	
113221	0.0261082	-0.500672	0.429608	-0.000240564	0.00491735	0.00451226	368419	-4.71823e+06	-760070	
113251	0.0261283	-0.50043	0.429642	6.89081e-05	0.000954034	0.0038738	257897	3.1082e+06	438934	
113281	0.0262125	-0.500589	0.429568	0.000123067	0.00160676	0.00396597	1.08021e+06	-2.05052e+06	-955767	
113311	0.0261799	-0.500643	0.429603	0.000544347	0.000807054	0.00359323	-419039	-689510	456658	
113341	0.026178	-0.500436	0.429489	0.000355779	0.000496774	0.00379872	-24863	2.66317e+06	-1.46927e+06	
113371	0.0259439	-0.500796	0.429414	0.000353541	0.000736459	0.00366649	-3.00845e+06	-4.62562e+06	-970226	
113401	0.0258281	-0.500796	0.429359	-0.000458739	-0.000512458	0.00340453	-1.48839e+06	-9539.43	-707349	
113431	0.0258281	-0.500796	0.429359	-0.00220016	-0.000523619	0.00257693	-1.48839e+06	-9539.43	-707349	
113461	0.0257643	-0.501277	0.429624	-0.00309319	-0.000529343	0.00215252	-820772	-6.18642e+06	3.41186e+06	
113491	0.0260777	-0.500552	0.429647	-0.00373339	-0.00535475	0.00481377	4.03375e+06	9.33155e+06	303267	
113521	0.0259098	-0.500475	0.429643	-0.000950104	0.00108402	0.00502303	-2.16278e+06	1.0016e+06	-50653.6	
113551	0.0261378	-0.499881	0.429663	-0.00224777	0.00168498	0.00499263	2.93964e+06	7.64883e+06	254850	
113581	0.0261378	-0.499881	0.429663	0.00216169	0.0131582	0.00537491	2.93964e+06	7.64883e+06	254850	
113611	0.0261378	-0.499881	0.429663	0.00921684	0.0315154	0.00598655	2.93964e+06	7.64883e+06	254850	
113641	0.0259584	-0.500117	0.42934	0.0108924	0.0358753	0.00613181	-2.31702e+06	-3.04107e+06	-4.16938e+06	
113671	0.0259536	-0.500139	0.429548	0.00922419	0.0336857	0.00312986	-61566.8	-294658	2.68642e+06	
113701	0.0258195	-0.500917	0.429511	0.00917062	0.0334293	0.00546705	-1.73254e+06	-1.00448e+07	-481727	
113731	0.0259204	-0.501076	0.429565	0.00807912	0.0271011	0.00516356	1.30468e+06	-2.05818e+06	703648	
113791	0.025793	-0.500506	0.429657	-1.36029e-07	1.02691e-08	5.68034e-11	852728	5.84083e+06	-1.47017e+06	
113821	0.0257681	-0.500599	0.429712	0.000230101	0.00157703	-0.000396947	-321462	-1.20849e+06	711157	
113851	0.0259511	-0.500291	0.429664	0.000143306	0.00125074	-0.000204934	2.37125e+06	3.98554e+06	-624033	
113881	0.0259511	-0.500291	0.429664	0.00291767	0.00591383	-0.000935053	2.37125e+06	3.98554e+06	-624033	
113911	0.025856	-0.500096	0.429548	0.00434042	0.00830515	-0.00130947	-1.23347e+06	2.53485e+06	-1.50368e+06	
113941	0.0258353	-0.500259	0.429659	0.00337831	0.0102823	-0.00248235	-268671	-2.11182e+06	1.4427e+06	
113971	0.0257891	-0.500337	0.429643	0.00318487	0.00876182	-0.0014436	-599597	-1.01195e+06	-202294	
114001	0.0257406	-0.500539	0.429741	0.0026992	0.00794214	-0.00160746	-630390	-2.6248e+06	1.26542e+06	
114031	0.0258167	-0.500058	0.429626	0.00216967	0.00573731	-0.000544508	988478	6.25028e+06	-1.49266e+06	
114061	0.0258167	-0.500058	0.429626	0.00388962	0.0166128	-0.00314174	988478	6.25028e+06	-1.49266e+06	
114091	0.0259372	-0.500584	0.429409	0.00400824	0.0173628	-0.00332086	1.5688e+06	-6.84469e+06	-2.81928e+06	
114121	0.0259968	-0.500562	0.429652	0.00438475	0.0157201	-0.00399749	775698	288385	3.15919e+06	
114151	0.0260064	-0.499924	0.429482	0.00468727	0.0158326	-0.0027654	124985	8.304e+06	-2.21627e+06	
114181	0.0261103	-0.500059	0.429466	0.00472477	0.0183238	-0.00343028	1.35451e+06	-1.75189e+06	-200189	
114211	0.0261279	-0.499981	0.429415	0.00484667	0.0181661	-0.0034483	230016	1.01659e+06	-667728	
114241	0.0261279	-0.499981	0.429415	0.00507439	0.0191725	-0.00410935	230016	1.01659e+06	-667728	
114271	0.0260075	-0.500278	0.429462	0.0052538	0.0199655	-0.00463018	-1.57199e+06	-3.87969e+06	609092	
114301	0.0259456	-0.500816	0.4297	0.00416913	0.0172885	-0.0042099	-808252	-7.02071e+06	3.10874e+06	
114331	0.0258726	-0.501452	0.429558	0.00346595	0.0111805	-0.0015053	-953686	-8.31188e+06	-1.85866e+06	
114361	0.0258794	-0.501206	0.429735	0.0028079	0.00544526	-0.00278778	88960.5	3.20658e+06	2.31230e+06	
114391	0.025808	-0.501408	0.42981	0.00286929	0.00765779	-0.00119228	-933680	-2.6357e+06	982566	
114421	0.0256952	-0.501369	0.429747	0.002085	0.0054438	-0.000366929	-1.47556e+06	511158	-818920	
114451	0.025895	-0.500871	0.42969	0.00146526	0.00565849	-0.000710876	2.61566e+06	6.519e+06	-742794	
114481	0.025935	-0.500848	0.429611	0.00209302	0.00722305	-0.000889146	524147	299443	-1.04416e+06	
114511	0.0260975	-0.500779	0.429648	0.00229744	0.00733983	-0.00129637	2.13082e+06	913312	494589	
114541	0.0260975	-0.500779	0.429648	0.00504619	0.008518	-0.00065835	2.13082e+06	913312	494589	
114571	0.0257531	-0.501126	0.429692	0.00517404	0.0085728	-0.000628674	-4.52049e+06	-4.56395e+06	567267	
114601	0.0257094	-0.500936	0.429506	0.00408912	0.00747746	-0.00049253	-573655	2.49313e+06	-2.44003e+06	
114631	0.0257094	-0.500936	0.429506	0.00343516	0.0103196	-0.00327416	-573655	2.49313e+06	-2.44003e+06	
114661	0.0257502	-0.501148	0.429534	0.00307375	0.0118903	-0.00481138	536434	-2.78428e+06	366134	
114691	0.025685	-0.50135	0.429537	0.00339561	0.0102197	-0.0045917	-858148	-2.65408e+06	45852.5	
114721	0.0256766	-0.501128	0.429582	0.00272626	0.00814954	-0.00455594	-110745	2.92407e+06	588036	
114751	0.0259693	-0.500949	0.429688	0.00264652	0.0102549	-0.00413255	3.8533e+06	2.34857e+06	1.40231e+06	
114781	0.0258463	-0.501369	0.429471	0.0053053	0.0118754	-0.00316496	-1.62037e+06	-5.53214e+06	-2.86866e+06	
114841	0.025823	-0.501222	0.429391	-4.76891e-08	3.67731e-09	9.18572e-11	313581	3.30507e+06	-1.20149e+06	
114871	0.0259343	-0.501051	0.429671	8.46191e-05	0.000892373	-0.000324402	1.46838e+06	2.25524e+06	3.69071e+06	
114901	0.025937	-0.501053	0.429681	0.000569184	0.0016366	0.000893531	35592	-14689.7	129270	
114931	0.025937	-0.501053	0.429681	0.000612962	0.00161853	0.00105253	35592	-14689.7	129270	
114991	0.0259162	-0.500937	0.429613	-4.04103e-08	3.48078e-09	4.80449e-10	-93601.4	1.08682e+06	1.23633e+06	
115021	0.0259069	-0.501146	0.429488	-5.90093e-05	0.000684699	0.000778891	-122281	-2.7542e+06	-1.65674e+06	
115051	0.0259069	-0.501146	0.429488	-0.000246099	-0.00352923	-0.00175592	-122281	-2.7542e+06	-1.65674e+06	
115081	0.0258251	-0.501118	0.429445	-0.000293789	-0.00460337	-0.00240205	-1.08295e+06	363470	-566817	
115111	0.0260578	-0.500385	0.429538	-0.000813605	-0.0044289	-0.00267412	3.08173e+06	9.71854e+06	1.23048e+06	
115141	0.0260312	-0.500492	0.429559	0.00085053	0.000819108	-0.00200966	-352264	-1.41987e+06	279746	
115171	0.0259849	-0.500524	0.42961	0.000607468	-0.000160603	-0.00181664	-613164	-431360	681716	
115201	0.0258889	-0.50076	0.429706	0.00023957	-0.00041942	-0.00140761	-1.27431e+06	-3.13198e+06	1.26628e+06	
115231	0.0258889	-0.50076	0.429706	-0.00167189	-0.0051174	0.00049181	-1.27431e+06	-3.13198e+06	1.26628e+06	
115261	0.026102	-0.500458	0.429649	-0.00182481	-0.00549323	0.000643763	2.51714e+06	4.4499e+06	-965377	
115291	0.0261062	-0.500445	0.429633	-0.00122069	-0.00442526	0.000412073	55463.9	174527	-212489	
115321	0.0262119	-0.500424	0.429613	-0.00120572	-0.00437814	0.000354701	1.4057e+06	281652	-256989	
115351	0.0262044	-0.500448	0.42955	-0.000952691	-0.00432744	0.000308443	-99973.4	-322284	-848401	
115381	0.0262044	-0.500448	0.42955	-0.00106066	-0.00467551	-0.00060783	-99973.4	-322284	-848401	
115411	0.026099	-0.500247	0.429465	-0.00112365	-0.00487854	-0.00114232	-1.40371e+06	2.68598e+06	-1.12122e+06	
115441	0.0261381	-0.500384	0.429693	-0.00217643	-0.00286406	-0.00198324	521576	-1.83577e+06	3.03656e+06	
115471	0.0262192	-0.500367	0.429736	-0.00184784	-0.00402059	-7.0204e-05	1.0807e+06	226455	573059	
115501	0.0262663	-0.49977	0.429813	-0.00110216	-0.00386434	0.000325206	627906	7.9723e+06	1.01756e+06	
115531	0.0262663	-0.49977	0.429813	-0.000103786	0.00881161	0.00194313	627906	7.9723e+06	1.01756e+06	
115561	0.0262663	-0.49977	0.429813	0.0014597	0.0286626	0.00447686	627906	7.9723e+06	1.01756e+06	
115591	0.0264936	-0.499471	0.429558	0.00157272	0.0300976	0.00466002	-422870	-384089	-1.64787e+06	
115621	0.0264452	-0.499144	0.42964	0.00147123	0.0300055	0.00426453	-647225	4.37529e+06	1.09729e+06	
115651	0.0264452	-0.499144	0.42964	0.000733398	0.0349933	0.00551544	-647225	4.37529e+06	1.09729e+06	
115711	0.0265186	-0.498941	0.429701	-1.98324e-08	1.64795e-09	1.08166e-10	-359578	-3.13561e+06	1.94225e+06	
115741	0.0266188	-0.499343	0.429739	-0.000118681	-0.00103475	0.000640942	1.34142e+06	-5.37585e+06	500321	
115771	0.0266188	-0.499343	0.429739	0.00153126	-0.00764704	0.00125634	1.34142e+06	-5.37585e+06	500321	
115801	0.0265939	-0.499132	0.429778	0.00241659	-0.0111951	0.00158655	-333198	2.82247e+06	528592	
115831	0.0265814	-0.499357	0.429777	0.00213671	-0.00882422	0.00203057	-167648	-3.02263e+06	-17411.5	
115861	0.0265873	-0.499282	0.429736	0.00204115	-0.0105471	0.00202064	78591.1	1.00806e+06	-543106	
115891	0.0265585	-0.499661	0.429817	0.00209538	-0.00985156	0.0016459	-385910	-5.08189e+06	1.08072e+06	
115921	0.026566	-0.499248	0.42981	0.0018291	-0.0133581	0.0023916	100561	5.55042e+06	-94176.2	
115951	0.0264831	-0.498952	0.429856	0.00189849	-0.00952828	0.00232662	-1.11437e+06	3.96692e+06	621187	
115981	0.0265067	-0.498696	0.429773	0.00176476	-0.00905225	0.00240116	317312	3.45135e+06	-1.11519e+06	
116011	0.0265067	-0.498696	0.429773	0.00208842	-0.00553187	0.00126366	317312	3.45135e+06	-1.11519e+06	
116041	0.0265067	-0.498696	0.429773	0.00269766	0.00109473	-0.0008775	317312	3.45135e+06	-1.11519e+06	
116101	0.0264059	-0.499468	0.42965	-1.34307e-08	1.13169e-09	6.38856e-11	177591	-4.82291e+06	2.10996e+06	
116131	0.0265269	-0.499583	0.429857	4.7936e-05	-0.00130219	0.00056969	1.63248e+06	-1.54917e+06	2.7872e+06	
116161	0.0265269	-0.499583	0.429857	0.00195794	-0.00311471	0.00383071	1.63248e+06	-1.54917e+06	2.7872e+06	
116191	0.0264419	-0.499353	0.429841	0.00259461	-0.00371888	0.00491772	-1.14732e+06	3.09481e+06	-211795	
116221	0.026532	-0.499231	0.429678	0.0020439	-0.00223337	0.00481606	1.21601e+06	1.64506e+06	-2.2081e+06	
116251	0.0262976	-0.499578	0.42969	0.00273702	-0.00129569	0.00355744	-3.166e+06	-4.68788e+06	163880	
116281	0.0264588	-0.499276	0.429659	0.000457499	-0.00467097	0.00367543	2.17827e+06	4.09376e+06	-423164	
116311	0.0264313	-0.499271	0.429772	0.00182981	-0.0020919	0.00340884	-371827	68226.2	1.53409e+06	
116341	0.0264313	-0.499271	0.429772	0.00126092	-0.00198751	0.00575599	-371827	68226.2	1.53409e+06	
116371	0.0264761	-0.499208	0.429614	0.000982045	-0.00193634	0.00690656	606122	848126	-2.14216e+06	
116461	0.026276	-0.499316	0.429554	-8.88986e-09	1.20978e-09	2.97741e-10	-2.25077e+06	645152	144820	
116490	0.026066	-0.499866	0.429532	-0.00175561	0.000503219	0.00011296	-2.84892e+06	-7.45541e+06	-302906	
116521	0.026066	-0.499866	0.429532	-0.00662727	-0.0122455	-0.000405009	-2.84892e+06	-7.45541e+06	-302906	
116551	0.026066	-0.499866	0.429532	-0.014063	-0.0317041	-0.00119559	-2.84892e+06	-7.45541e+06	-302906	
116581	0.0261776	-0.500196	0.429809	-0.0159433	-0.0366247	-0.00139551	1.51681e+06	-4.48196e+06	3.76529e+06	
116611	0.026062	-0.50005	0.429661	-0.0148056	-0.0399862	0.00142845	-1.57099e+06	1.98865e+06	-2.0073e+06	
116641	0.0260084	-0.499868	0.429636	-0.014947	-0.0398072	0.0012478	-442186	2.48348e+06	-1.65179e+06	
116671	0.0261629	-0.500095	0.429714	-0.0150399	-0.0392857	0.000900922	2.10308e+06	-3.09652e+06	1.0618e+06	
116701	0.026115	-0.500045	0.429668	-0.014409	-0.0402146	0.00121946	-652343	677378	-626865	
116731	0.0260263	-0.500683	0.429797	-0.0147025	-0.0399098	0.000937371	-1.20882e+06	-8.67982e+06	1.75911e+06	
116761	0.0259545	-0.500851	0.42969	-0.0148113	-0.040691	0.00109569	-978611	-2.29643e+06	-1.46453e+06	
116821	0.02604	-0.500839	0.429956	-6.05155e-09	1.07909e-09	3.27174e-10	1.16649e+06	159378	3.62824e+06	
