MS	x	y	z	vx	vy	vz	ax	ay	az	
7515	0.064561	-0.101745	-0.913933	0.00114733	-0.0071654	2.92909e-11	-0.275459	0.680764	0.325454	
7635	0.0860323	-0.113596	-0.898925	0.00101728	-0.00635322	1.42319e-11	-0.278608	0.68	0.237198	
8086	0.0757669	-0.106726	-0.904319	0.000651172	-0.00406676	1.42301e-11	-0.245332	0.680489	0.237169	
8295	0.075885	-0.102115	-0.90249	0.000527551	-0.00329471	7.32174e-11	-0.256652	0.68094	0.305073	
8596	0.082332	-0.107803	-0.901092	0.000388573	-0.00242676	2.75518e-11	-0.276347	0.680446	0.306132	
9885	0.0750648	-0.104454	-0.892176	0.000107691	-0.000672569	7.7771e-11	-0.292629	0.679833	0.23567	
9945	0.0722495	-0.100458	-0.892782	0.000101914	-0.00063649	1.0639e-10	-0.278743	0.680571	0.236422	
9975	0.0722495	-0.100458	-0.892782	9.84002e-05	-0.000614543	3.65757e-11	-0.289559	0.678756	0.203198	
10545	0.0749811	-0.109914	-0.892757	5.50142e-05	-0.000343582	6.50865e-12	-0.277337	0.679205	0.216955	
11085	0.0746741	-0.10653	-0.894009	3.23384e-05	-0.000201965	6.39309e-11	-0.277151	0.679704	0.236781	
11536	0.08354	-0.104501	-0.89033	2.06998e-05	-0.00012928	7.53052e-11	-0.277157	0.680316	0.167345	
12015	0.0811585	-0.105288	-0.893371	1.26568e-05	-7.91751e-05	-4.57316e-10	0.154888	2.83143	-3.04877	
12225	0.177153	-0.120985	-0.838968	1.037e-05	-6.47903e-05	-1.89595e-11	-0.904355	2.11359	-0.0451417	
12255	0.177153	-0.120985	-0.838968	1.00684e-05	-6.28738e-05	2.1088e-11	-0.87987	1.90535	0.0878667	
12285	0.177153	-0.120985	-0.838968	9.68053e-06	-6.04044e-05	3.36375e-11	-0.834131	1.94987	0.37375	
12345	0.184231	-0.142604	-0.721935	9.30774e-06	-5.80102e-05	-6.60477e-11	-0.63385	2.13221	-0.0957213	
12675	0.383649	-0.0954226	-0.521877	-0.601944	-0.0888657	1.81971e-10	-0.946203	0.612092	1.51642	
12855	0.488957	-0.147588	-0.504433	-0.588921	-0.12268	1.94552e-11	-0.154679	0.937079	0.648506	
12975	0.524291	-0.162982	-0.558637	-0.567485	-0.118179	1.03128e-09	-0.465296	1.48223	2.45543	
13305	0.810325	-0.158439	-0.494919	-0.411076	-0.0598447	9.54436e-10	-0.185057	1.57089	2.27247	
15615	1.46143	-0.231891	-0.462251	2.41384e-05	-0.0486822	2.12969e-11	-0.278244	0.682713	0.236633	
16036	1.46095	-0.231215	-0.46354	0.000226581	-0.00227922	5.25145e-11	-0.279187	0.689584	0.159135	
16395	1.46086	-0.232347	-0.4623	6.38663e-05	2.25416e-05	4.64855e-11	-0.272291	0.695337	0.140865	
16425	1.46086	-0.232347	-0.4623	7.33723e-05	-0.000210937	1.45299e-11	-0.2754	0.683519	0.161443	
16725	1.4614	-0.228978	-0.460132	0.000138835	-0.000314525	3.54841e-11	-0.276733	0.676778	0.236561	
16755	1.4614	-0.228978	-0.460132	-5.27985e-05	-0.000250349	4.25266e-11	-0.277829	0.682522	0.236259	
17475	1.4574	-0.234578	-0.462253	-0.000771836	-0.000229812	5.29648e-11	-0.275637	0.676087	0.220687	
17506	1.4574	-0.234578	-0.462253	-0.00062831	-0.000326206	2.91003e-11	-0.277783	0.680828	0.161668	
17595	1.45996	-0.232	-0.460164	-0.000780281	0.000355185	7.13735e-11	-0.271847	0.679596	0.237912	
17925	1.45247	-0.237794	-0.465222	-0.00152292	-0.0462309	1.52076e-11	-0.277977	0.686098	0.168973	
18195	1.45582	-0.235531	-0.461997	0.000945859	-0.00971896	2.88293e-11	-0.278372	0.686818	0.240245	
18225	1.45582	-0.235531	-0.461997	0.00186259	-0.00627329	5.01939e-11	-0.276473	0.683686	0.239018	
18285	1.45864	-0.234221	-0.461788	0.000640635	-0.00341405	3.56394e-11	-0.275956	0.630759	0.237596	
18645	1.45925	-0.23446	-0.46283	0.000669642	-0.00073537	8.47973e-11	-0.202374	0.682436	0.314064	
18765	1.45848	-0.233072	-0.462853	0.00043516	-0.000358966	1.88585e-11	-0.219892	0.679154	0.314308	
19065	1.4602	-0.231994	-0.46434	0.000678203	-0.0367276	4.86699e-11	-0.276351	0.680253	0.202791	
19096	1.4602	-0.231994	-0.46434	-0.00167359	-0.0444994	1.39752e-11	-0.277144	0.646793	0.23292	
19545	1.48155	-0.257442	-0.488177	-0.000438644	-0.0492781	2.9138e-11	-0.275729	0.600196	0.242817	
19695	1.53312	-0.273964	-0.494679	0.00194282	-0.0525154	6.7084e-11	-0.209297	0.682944	0.319447	
19816	1.53633	-0.272197	-0.494252	0.000569196	-0.0518421	7.1493e-11	-0.260002	0.680573	0.264789	
20146	1.53637	-0.272273	-0.493685	0.000857278	-0.0492205	1.4407e-11	-0.214426	0.68244	0.160078	
20235	1.53888	-0.27149	-0.493912	0.000787253	-0.0452002	4.85504e-11	-0.27699	0.602777	0.202293	
20265	1.53888	-0.27149	-0.493912	0.00076011	-0.0436417	1.36077e-11	-0.277324	0.68639	0.226794	
20535	1.54093	-0.269911	-0.49026	0.000583448	-0.00204784	5.68355e-11	-0.269922	0.675439	0.236815	
20566	1.54093	-0.269911	-0.49026	0.000408513	-0.000733864	1.84351e-11	-0.209334	0.680068	0.153626	
20626	1.53487	-0.272397	-0.488586	-0.000849599	-0.000783178	5.97329e-11	-0.200866	0.603828	0.221233	
20955	1.53479	-0.268639	-0.492513	7.1551e-05	0.000515693	6.84913e-11	-0.190799	0.681237	0.326149	
20985	1.53479	-0.268639	-0.492513	-0.000154576	3.03877e-07	1.37651e-11	-0.203892	0.681449	0.229419	
21315	1.53419	-0.27329	-0.495361	-0.000107772	0.000430991	5.30747e-11	-0.261221	0.622367	0.252737	
21405	1.5393	-0.271999	-0.49622	0.000812838	0.000440324	1.41603e-11	-0.228785	0.687742	0.236005	
22035	1.54095	-0.267798	-0.494425	0.000405319	6.98247e-05	4.89092e-11	-0.213976	0.616463	0.232901	
23266	1.53355	-0.273414	-0.492606	-0.00023506	-0.000232576	3.77716e-11	-0.221945	0.680491	0.314763	
23595	1.53799	-0.270019	-0.493096	0.000763135	-0.000473661	3.22845e-11	-0.276343	0.609837	0.179358	
24046	1.52828	-0.275304	-0.495201	-0.000557865	0.000450758	4.26017e-11	-0.279684	0.679662	0.236676	
24465	1.53399	-0.273652	-0.493155	0.00109186	-0.000859175	3.55545e-11	-0.24797	0.680252	0.23703	
24795	1.5314	-0.274238	-0.494872	0.000768334	0.000608043	2.84505e-11	-0.201699	0.681219	0.237088	
25245	1.53117	-0.273464	-0.492437	-0.000540268	-3.38289e-05	2.67434e-11	-0.249489	0.677206	0.222861	
26175	1.55877	-0.307207	-0.534803	0.00143323	-0.00316616	5.71333e-11	-0.200078	0.62663	0.238055	
26236	1.55696	-0.30788	-0.535096	0.000835294	-0.00213248	2.84091e-11	-0.272295	0.679805	0.236743	
26265	1.55696	-0.30788	-0.535096	0.000328413	-0.00157215	2.13043e-11	-0.272414	0.680297	0.236714	
26296	1.55696	-0.30788	-0.535096	0.000649223	-0.000743916	2.84551e-11	-0.196926	0.680969	0.237126	
26535	1.55863	-0.301818	-0.535137	0.000192534	-0.00102587	2.12788e-11	-0.275749	0.6815	0.236432	
26625	1.55703	-0.302381	-0.537451	5.24668e-06	0.000848836	2.81218e-11	-0.203309	0.692498	0.312464	
26716	1.56226	-0.304788	-0.532882	-9.06562e-05	0.000507351	2.84103e-11	-0.264036	0.681063	0.236753	
26895	1.56372	-0.30474	-0.533833	-0.000316669	-0.000247085	9.22717e-11	-0.280625	0.687688	0.236594	
26986	1.56275	-0.304851	-0.533327	0.000439705	-0.000282225	2.12969e-11	-0.276972	0.68482	0.236633	
27015	1.56275	-0.304851	-0.533327	1.15735e-05	-0.000255716	1.38764e-11	-0.29335	0.617812	0.154182	
27555	1.55916	-0.302255	-0.534121	6.15646e-06	-0.000217536	7.08821e-11	-0.20166	0.682156	0.236274	
27885	1.55715	-0.303772	-0.533282	5.57075e-05	-0.000636541	1.53228e-11	-0.203707	0.681397	0.255381	
28425	1.63174	-0.315226	-0.574022	0.000244905	0.000362468	8.2187e-11	-0.237471	0.680394	0.161151	
28785	1.6367	-0.312817	-0.572515	0.000183527	0.000456025	4.83971e-11	-0.274464	0.680102	0.161324	
29115	1.6356	-0.314494	-0.574713	0.000980914	-0.000255479	5.83426e-11	-0.274737	0.597917	0.194475	
30645	1.69797	-0.376621	-0.666541	-6.5922e-06	5.92659e-05	1.84495e-11	-0.243866	0.665087	0.153746	
31335	1.68634	-0.368295	-0.64863	0.000156762	-0.00048446	1.41873e-11	-0.276907	0.681016	0.236456	
31846	1.69196	-0.366255	-0.643463	0.000322184	-0.000824517	2.0036e-11	-0.285447	0.680015	0.166967	
32565	1.68908	-0.364928	-0.645446	-0.000657022	0.000697025	2.6725e-11	-0.277252	0.680092	0.222708	
32895	1.69013	-0.363156	-0.6456	-0.000592162	0.000420682	3.97283e-11	-0.275437	0.61091	0.189183	
33255	1.69302	-0.36747	-0.63791	0.000144442	-0.000887042	4.95208e-11	-0.209883	0.605326	0.235814	
33286	1.69302	-0.36747	-0.63791	0.00012021	-0.000395711	2.84609e-11	-0.201316	0.688215	0.237174	
33765	1.69139	-0.371873	-0.646477	0.0002328	0.000358905	1.42362e-11	-0.223929	0.591531	0.23727	
34155	1.69085	-0.365369	-0.639607	0.000739991	-0.000854289	2.78533e-11	-0.27721	0.6804	0.232111	
34785	1.69286	-0.370123	-0.639232	0.000636556	0.00032437	2.51403e-11	-0.277222	0.679865	0.209502	
34845	1.69229	-0.36904	-0.636523	-0.000733568	0.000705442	3.19498e-11	-0.2777	0.680275	0.212999	
35175	1.6917	-0.372279	-0.648238	0.00013705	3.83957e-05	8.03555e-11	-0.252179	0.681681	0.243501	
35565	1.6888	-0.371594	-0.638658	0.000584951	-0.00084356	2.91058e-11	-0.189947	0.679651	0.242548	
35835	1.69276	-0.371206	-0.642679	0.000925972	-0.000283517	9.4748e-12	-0.276434	0.644119	0.157913	
35926	1.6935	-0.3653	-0.640102	-0.000559461	0.000292519	3.44207e-11	-0.243746	0.679127	0.229472	
35986	1.69347	-0.365325	-0.639574	0.000751716	0.00041039	2.28923e-11	-0.275361	0.682764	0.152615	
36046	1.69347	-0.365325	-0.639574	3.16583e-05	-0.000390264	2.092e-11	-0.277983	0.679634	0.174334	
36675	1.68713	-0.367045	-0.64742	0.000218888	0.000374992	4.80408e-11	-0.277104	0.673996	0.160136	
36705	1.68713	-0.367045	-0.64742	0.000401818	-0.000479421	6.57725e-11	-0.191123	0.683589	0.243602	
37095	1.68708	-0.368525	-0.644678	0.000527852	0.000163085	1.92623e-11	-0.211531	0.679616	0.160519	
37546	1.69554	-0.361979	-0.6484	0.00114378	-4.92407e-05	7.04695e-11	-0.276093	0.680358	0.234898	
37575	1.69554	-0.361979	-0.6484	0.00113153	0.000505444	2.84298e-11	-0.27773	0.680438	0.236915	
38506	1.70389	-0.37019	-0.641897	5.97845e-05	0.000857883	2.48776e-11	-0.276641	0.681619	0.16585	
38595	1.69915	-0.368542	-0.644903	0.000905483	6.56497e-05	3.8628e-11	-0.262134	0.629281	0.16095	
38685	1.70103	-0.373639	-0.649929	-0.000406009	-0.000928485	2.06861e-11	-0.275363	0.67909	0.229845	
38926	1.70717	-0.366913	-0.648058	0.000700743	-0.00014349	4.32302e-11	-0.2866	0.678607	0.160112	
38986	1.70532	-0.369131	-0.648831	0.000159271	-0.00102983	4.33737e-11	-0.278481	0.679695	0.160643	
39795	1.72351	-0.393878	-0.690944	0.000622629	-6.34062e-05	5.92842e-11	-0.200052	0.597036	0.247017	
40426	1.7106	-0.39716	-0.6868	-0.000224629	-0.00127851	3.34054e-11	-0.27685	0.679744	0.185585	
40695	1.68876	-0.381381	-0.669322	0.000654118	0.000285774	7.10588e-11	-0.200928	0.685428	0.236863	
40935	1.66524	-0.383687	-0.683222	0.00118081	-0.000715405	4.79703e-12	-0.316959	0.66434	0.159901	
41295	1.64626	-0.377891	-0.673705	0.00012629	0.000324588	6.38869e-11	-0.288341	0.679871	0.236618	
41385	1.64574	-0.379183	-0.675785	-0.00062065	-0.000600119	2.54574e-11	-0.212098	0.680333	0.169716	
41565	1.65408	-0.373272	-0.673709	0.000610397	3.98452e-05	3.96632e-11	-0.277543	0.681486	0.220351	
41685	1.65023	-0.378003	-0.674092	-0.000114064	-0.000161087	3.54497e-11	-0.279669	0.679893	0.236331	
41715	1.65023	-0.378003	-0.674092	2.24436e-05	5.9082e-05	4.26542e-11	-0.261831	0.680667	0.236968	
41985	1.65877	-0.373577	-0.675736	0.000368525	-0.000733856	2.39622e-11	-0.276884	0.676666	0.159748	
42466	1.6492	-0.379205	-0.673539	0.00029468	0.000114144	4.26215e-11	-0.278256	0.678442	0.236786	
42675	1.6456	-0.380343	-0.673656	-0.00160614	0.000902091	3.55861e-11	-0.276786	0.680606	0.237241	
42766	1.64575	-0.380383	-0.675152	-0.000609807	1.23889e-05	4.28888e-11	-0.232473	0.680988	0.238271	
42795	1.64575	-0.380383	-0.675152	-0.000570508	-0.000352015	3.58247e-11	-0.271056	0.611018	0.238831	
42855	1.63862	-0.383337	-0.676702	4.2337e-05	-0.000932293	2.83971e-11	-0.284641	0.680102	0.236642	
43246	1.62941	-0.384873	-0.665651	-6.86956e-05	-0.000846207	3.73285e-11	-0.220326	0.681137	0.248857	
43305	1.62941	-0.384425	-0.664658	-0.000440326	0.000507531	6.48226e-11	-0.278936	0.680752	0.15434	
43335	1.62941	-0.384425	-0.664658	-0.000662362	-8.81669e-05	1.93336e-11	-0.278493	0.678752	0.161113	
43515	1.63331	-0.383453	-0.662702	-0.000330295	-0.000653571	2.40599e-11	-0.246073	0.679966	0.160399	
43845	1.63508	-0.383179	-0.664097	-0.000325462	0.000207614	1.84087e-11	-0.277262	0.624561	0.153406	
43875	1.63508	-0.383179	-0.664097	-0.000376925	-0.000190604	1.90732e-11	-0.276375	0.605597	0.158943	
43905	1.63508	-0.383179	-0.664097	2.83557e-06	-6.3886e-05	2.90771e-11	-0.276089	0.684852	0.242309	
44506	1.63578	-0.383254	-0.660821	0.000501629	-0.000657159	6.52462e-11	-0.291952	0.691125	0.241653	
44655	1.63376	-0.384292	-0.662057	0.000361408	2.17912e-05	6.65739e-12	-0.272038	0.669944	0.221913	
45225	1.64319	-0.379669	-0.658579	0.000814899	0.000290393	6.34505e-11	-0.275585	0.601085	0.162694	
45315	1.64263	-0.378717	-0.657678	-0.000146034	-0.000109689	4.31371e-11	-0.277852	0.677325	0.159767	
45436	1.64126	-0.378139	-0.657516	0.000855597	-0.000340769	1.43454e-11	-0.29804	0.674533	0.159393	
46065	1.63993	-0.377286	-0.656928	0.000523931	0.000838462	8.6468e-11	-0.277363	0.659208	0.160126	
46305	1.64004	-0.378178	-0.658168	0.000225658	-0.000237764	3.37553e-11	-0.277013	0.68009	0.160739	
46725	1.63878	-0.381001	-0.65826	0.000407596	-0.000738256	3.83246e-11	-0.277361	0.684179	0.159686	
47116	1.63564	-0.382315	-0.657095	0.000408243	-0.000740764	1.79317e-11	-0.277695	0.680428	0.199242	
47535	1.632	-0.381935	-0.656814	-0.000282557	-0.000276022	4.47859e-11	-0.285178	0.592118	0.149286	
47565	1.632	-0.381935	-0.656814	-0.00037078	-0.000137666	7.50027e-11	-0.301162	0.601109	0.156256	
47716	1.6368	-0.379384	-0.657352	-0.000329783	-0.000334526	4.53895e-11	-0.276275	0.662344	0.151298	
47986	1.63345	-0.379626	-0.656595	-5.35266e-06	-0.00070133	3.88832e-11	-0.276892	0.645806	0.162013	
49065	1.62869	-0.383794	-0.657744	0.00122654	-0.000475211	9.9092e-11	-0.196033	0.627093	0.235933	
49365	1.63787	-0.380537	-0.65857	0.000377772	-0.0011762	9.59637e-12	-0.276748	0.678448	0.159939	
49516	1.63814	-0.381192	-0.658668	0.000382807	0.000375577	4.13755e-11	-0.277474	0.69809	0.153243	
49725	1.63678	-0.382149	-0.659936	-0.000830046	0.000387086	4.94052e-11	-0.216136	0.682977	0.235263	
50265	1.63964	-0.379372	-0.65722	-0.0001128	-0.00025711	3.83463e-11	-0.276735	0.675925	0.159776	
50295	1.63964	-0.379372	-0.65722	-0.000837042	-0.000341991	2.39557e-11	-0.277231	0.683477	0.159704	
50385	1.63936	-0.37839	-0.657627	3.27778e-05	-0.000229079	1.91996e-11	-0.275744	0.66433	0.159997	
50565	1.63714	-0.381507	-0.657538	-0.000571807	-0.000460542	5.92828e-11	-0.276008	0.649718	0.152007	
50625	1.63717	-0.381609	-0.658753	0.000851609	-0.000493916	1.91461e-11	-0.277467	0.680495	0.159551	
51256	1.63619	-0.382511	-0.656549	0.000692463	-0.0010689	7.24298e-11	-0.274031	0.625654	0.160955	
51315	1.63708	-0.382805	-0.65614	0.000141691	-0.00116147	9.62494e-11	-0.27771	0.680521	0.229165	
51345	1.63708	-0.382805	-0.65614	-0.000904785	0.000181903	1.51529e-11	-0.277488	0.679887	0.168365	
51675	1.63225	-0.383082	-0.658563	0.000214382	-0.00045244	3.66684e-11	-0.239364	0.64807	0.174611	
52095	1.63413	-0.383932	-0.658261	-0.000225207	0.000398177	3.91131e-11	-0.268678	0.604134	0.162971	
52156	1.63388	-0.384806	-0.658131	0.000149402	0.000508233	4.34333e-11	-0.275678	0.602597	0.160864	
52485	1.63673	-0.381736	-0.656369	0.000218138	-8.0833e-05	6.27668e-11	-0.276293	0.614565	0.160941	
52545	1.63562	-0.382535	-0.656934	-0.000972337	0.000272509	3.35491e-11	-0.27339	0.680486	0.159758	
52845	1.63615	-0.383902	-0.656806	-0.000241526	0.00022496	2.90909e-11	-0.27606	0.609232	0.161616	
52875	1.63615	-0.383902	-0.656806	0.000323185	-0.000109687	2.4103e-11	-0.276376	0.617926	0.160687	
52905	1.63615	-0.383902	-0.656806	0.000459975	-0.000267307	6.22382e-11	-0.27807	0.684735	0.159585	
53265	1.63457	-0.384345	-0.65732	0.00110078	0.000392111	1.91634e-11	-0.275917	0.682626	0.159695	
53475	1.63429	-0.383751	-0.656616	0.000846203	-0.000968452	2.41411e-11	-0.276177	0.598584	0.160941	
53986	1.63172	-0.383774	-0.658202	-0.000412639	-1.30323e-06	2.41698e-11	-0.273116	0.59961	0.161132	
54435	1.63428	-0.384637	-0.656347	-6.00337e-06	-0.000396739	2.87581e-11	-0.276402	0.676299	0.159767	
54465	1.63428	-0.384637	-0.656347	-0.00197067	-5.6072e-05	2.87546e-11	-0.277497	0.679494	0.159748	
54706	1.63362	-0.381534	-0.657568	0.00142804	0.000126831	5.14531e-11	-0.260538	0.644238	0.142925	
54766	1.63907	-0.380219	-0.656431	5.42288e-05	0.000332467	2.85606e-11	-0.242982	0.603595	0.15867	
55125	1.63328	-0.382501	-0.656733	4.09713e-05	0.00025747	4.26648e-12	-0.279609	0.630516	0.142216	
55185	1.63249	-0.384169	-0.657181	0.00136167	-0.000431022	1.9533e-11	-0.308185	0.581559	0.162775	
55906	1.64078	-0.377894	-0.655797	-0.000587313	0.000198851	4.2781e-11	-0.276351	0.626834	0.237672	
56205	1.64033	-0.378228	-0.657017	0.000257685	-8.07433e-05	4.79243e-11	-0.27803	0.679468	0.159748	
56235	1.64033	-0.378228	-0.657017	-0.000547146	0.000436241	4.31346e-11	-0.276777	0.679995	0.159758	
56535	1.63211	-0.382383	-0.653912	0.000498456	-0.000184525	4.69299e-12	-0.339735	0.67937	0.156433	
56596	1.63148	-0.382997	-0.653623	0.000277303	4.00319e-05	2.5592e-11	-0.278727	0.610079	0.213267	
56625	1.63148	-0.382997	-0.653623	0.00131553	-0.000280245	3.35069e-11	-0.32405	0.603497	0.159556	
56745	1.62811	-0.383005	-0.654438	-0.000453117	0.000315927	2.12318e-11	-0.190672	0.682276	0.235909	
57315	1.63117	-0.383608	-0.657396	0.000737106	0.000411677	4.38433e-11	-0.277545	0.58813	0.162382	
57346	1.63117	-0.383608	-0.657396	0.000254916	-0.0005262	1.96761e-11	-0.270181	0.604663	0.163968	
57495	1.63385	-0.384068	-0.657477	0.000112765	0.000133258	1.00039e-11	-0.363347	0.688431	0.0833661	
58006	1.62951	-0.384371	-0.656602	-0.000103831	-0.000379935	1.43721e-11	-0.284444	0.680091	0.15969	
58065	1.63529	-0.383309	-0.656864	-0.000490732	-6.00186e-05	3.35511e-11	-0.27625	0.678035	0.159767	
58125	1.62919	-0.384607	-0.656301	-0.000257764	7.14986e-05	2.75174e-11	-0.276261	0.603194	0.152874	
58185	1.63598	-0.379162	-0.654736	0.000319053	0.000702587	3.37361e-11	-0.276374	0.638694	0.160648	
58215	1.63598	-0.379162	-0.654736	0.000954299	0.000373365	4.31125e-11	-0.277793	0.676928	0.159676	
58486	1.6332	-0.381173	-0.652927	0.000592623	-8.44541e-05	2.92018e-11	-0.266338	0.678762	0.243348	
58605	1.63499	-0.383336	-0.653826	-0.000194444	-0.000259916	1.43026e-11	-0.27994	0.675768	0.238376	
58905	1.62958	-0.381236	-0.657087	0.000586574	0.000371199	1.48441e-11	-0.276845	0.623437	0.247401	
58936	1.62958	-0.381236	-0.657087	0.000196314	0.000347455	5.7477e-11	-0.275894	0.641483	0.239487	
59355	1.63301	-0.379539	-0.657447	0.00079342	0.000328594	9.66938e-12	-0.276162	0.606602	0.161156	
59746	1.63364	-0.382186	-0.659483	5.17568e-05	0.000492678	1.50485e-11	-0.28362	0.67957	0.167206	
60135	1.63608	-0.383463	-0.662568	0.000182911	-8.40147e-05	9.60931e-12	-0.275089	0.664318	0.160155	
60796	1.63284	-0.387001	-0.662009	2.3603e-05	-0.000214717	3.38498e-11	-0.276524	0.595177	0.16119	
61576	1.63546	-0.387467	-0.660337	0.000471997	-0.000177149	4.47848e-11	-0.263857	0.678889	0.248804	
61965	1.63207	-0.386653	-0.659914	0.000534728	0.000568315	1.96842e-11	-0.277086	0.602134	0.164035	
62025	1.63435	-0.384604	-0.660972	-0.000108554	0.000242708	2.8821e-11	-0.277651	0.654514	0.160117	
62326	1.63796	-0.383772	-0.65922	-4.06032e-05	0.000371627	2.11839e-11	-0.264507	0.657072	0.176532	
62355	1.63796	-0.383772	-0.65922	-9.06908e-05	6.69032e-05	3.72707e-11	-0.278947	0.694264	0.207059	
62655	1.63475	-0.385676	-0.660572	-0.000260049	-0.000695038	4.82965e-12	-0.275914	0.606368	0.160988	
63946	1.63644	-0.385534	-0.659223	-0.00120402	6.1889e-06	1.83271e-11	-0.275941	0.611005	0.152726	
64215	1.63183	-0.389119	-0.659835	-0.000233765	0.000686564	1.4213e-11	-0.284347	0.68737	0.157923	
64365	1.62896	-0.389645	-0.660123	0.000905821	-0.000680225	6.7096e-11	-0.276764	0.680265	0.159752	
64456	1.63318	-0.384587	-0.658808	0.000369461	-0.000723519	1.44006e-10	-0.276932	0.683492	0.252641	
65025	1.63764	-0.384621	-0.658958	-0.000361593	0.000239714	2.4443e-11	-0.287574	0.68689	0.203692	
65085	1.63323	-0.387422	-0.657463	-0.000129207	0.00094166	4.87032e-12	-0.275501	0.610726	0.162344	
65445	1.63363	-0.387433	-0.659292	0.000219509	-0.000106599	1.42586e-11	-0.243773	0.587144	0.237644	
65505	1.63349	-0.388144	-0.658609	0.000958439	-0.000600166	1.21389e-10	-0.232958	0.625389	0.238017	
65895	1.63024	-0.390456	-0.66063	-0.00110852	-0.000951752	1.44872e-11	-0.223278	0.624148	0.160969	
66256	1.63895	-0.384521	-0.658107	0.00053385	-0.000212314	1.32218e-10	-0.194981	0.602981	0.259252	
66376	1.63895	-0.384017	-0.657736	0.00108328	-0.00040101	1.93312e-11	-0.27456	0.680281	0.161094	
66405	1.63895	-0.384017	-0.657736	-0.000633627	0.000107103	3.83246e-11	-0.277675	0.680014	0.159686	
66645	1.63514	-0.386147	-0.661138	0.000832542	-0.000943833	3.63344e-11	-0.206983	0.679797	0.173021	
67035	1.63839	-0.383878	-0.661077	0.000207024	0.000329969	9.5228e-12	-0.280523	0.655023	0.158713	
67246	1.63712	-0.385504	-0.659586	-0.000606651	0.00112104	2.95888e-11	-0.275891	0.595922	0.140899	
68325	1.63266	-0.384894	-0.663598	-0.00118956	-7.9376e-05	1.3985e-11	-0.277143	0.638365	0.0932333	
68355	1.63266	-0.384894	-0.663598	-0.000183755	6.34168e-05	2.52778e-11	-0.276797	0.677519	0.168519	
68655	1.63274	-0.38822	-0.664093	-0.000180486	-0.000212087	1.14076e-10	-0.278076	0.623725	0.237658	
68985	1.63993	-0.384104	-0.657339	0.000338765	0.000201607	4.77636e-11	-0.212742	0.679529	0.227446	
69015	1.63993	-0.384104	-0.657339	-0.000290969	-0.000524039	6.01677e-11	-0.284765	0.599222	0.200559	
69405	1.64082	-0.383176	-0.655136	0.000171076	8.25771e-05	2.39787e-11	-0.278258	0.678943	0.159858	
69675	1.63003	-0.390376	-0.662858	0.000645831	-0.000400669	1.47955e-11	-0.278125	0.678765	0.0821972	
70066	1.63804	-0.383729	-0.661159	0.000110245	-2.54679e-06	1.43928e-11	-0.276635	0.668789	0.15992	
70275	1.6342	-0.386015	-0.663275	-0.000106094	-0.000170947	2.40735e-11	-0.293817	0.629969	0.16049	
70545	1.63826	-0.383799	-0.662863	0.000548887	0.000222585	1.89208e-11	-0.276866	0.679038	0.157674	
70665	1.63382	-0.387642	-0.661446	-0.000578773	-0.000206485	1.32269e-10	-0.211419	0.681888	0.314926	
70816	1.6357	-0.385412	-0.662115	-0.000287767	0.000797578	6.38054e-11	-0.275343	0.680212	0.236316	
70845	1.6357	-0.385412	-0.662115	0.000136461	0.000698144	1.33024e-11	-0.278278	0.681013	0.221707	
71265	1.63636	-0.384908	-0.66377	0.000497278	-0.000370875	3.32926e-11	-0.271477	0.678169	0.158536	
72016	1.63767	-0.384503	-0.661715	0.000386458	0.000554129	5.5302e-11	-0.269444	0.681708	0.204822	
72195	1.64168	-0.38311	-0.659865	0.000252488	-0.000697769	3.05917e-11	-0.274439	0.678322	0.145675	
72345	1.63608	-0.387942	-0.662298	0.000850569	-0.00177968	3.37754e-11	-0.276765	0.610012	0.160835	
72435	1.63372	-0.3885	-0.659022	0.00133638	-0.000335337	4.96758e-11	-0.276494	0.67108	0.236551	
72465	1.63372	-0.3885	-0.659022	-4.40492e-05	-0.000398803	2.12871e-11	-0.278064	0.677589	0.236523	
72735	1.64043	-0.383513	-0.662573	0.000402734	-8.95706e-05	1.4423e-11	-0.277636	0.665049	0.160256	
72856	1.64359	-0.381908	-0.661203	0.000225489	-0.000201167	1.37716e-11	-0.278084	0.675725	0.153018	
73125	1.64343	-0.382187	-0.659755	0.000774383	7.60054e-05	1.44739e-11	-0.276567	0.615993	0.160821	
73516	1.63581	-0.386498	-0.659867	0.000493938	0.000393981	4.83699e-12	-0.243136	0.602086	0.161233	
73665	1.63623	-0.387249	-0.662158	0.000659723	-0.000601371	8.61706e-11	-0.309416	0.680202	0.159575	
74625	1.63522	-0.385458	-0.658674	0.000528395	-0.000824477	2.41677e-11	-0.276764	0.598802	0.161118	
74745	1.63494	-0.385796	-0.660882	-0.000511984	2.98583e-05	2.85244e-11	-0.308783	0.670088	0.158469	
74985	1.63759	-0.383675	-0.66028	0.000769943	0.000609258	3.02696e-11	-0.277746	0.671653	0.168164	
75015	1.63759	-0.383675	-0.66028	-0.000115541	-0.00028533	2.43272e-11	-0.35846	0.676049	0.0737188	
75165	1.63332	-0.386331	-0.656895	0.00118101	-0.000420255	2.87607e-11	-0.277206	0.681225	0.159782	
75375	1.63839	-0.383345	-0.661442	-0.00026867	-0.00081077	2.39894e-11	-0.294888	0.679918	0.15993	
75705	1.6366	-0.382586	-0.659335	0.000168798	-0.000125079	4.7657e-12	-0.276798	0.677532	0.158857	
75765	1.64243	-0.380395	-0.663525	0.00104791	0.000960757	2.39894e-11	-0.261619	0.679531	0.15993	
75795	1.64243	-0.380395	-0.663525	-0.000694297	0.000898571	2.44421e-11	-0.274542	0.596539	0.162947	
76515	1.64047	-0.384747	-0.657554	-0.000159	-0.000823314	9.65527e-12	-0.277904	0.611156	0.160921	
76606	1.64128	-0.382929	-0.658591	-0.000410926	0.000747197	2.4085e-11	-0.276799	0.631471	0.160567	
76875	1.64389	-0.381375	-0.659708	0.00135925	-0.000311222	1.91852e-11	-0.276985	0.671393	0.159877	
77175	1.63757	-0.383151	-0.661085	0.000849231	8.5445e-05	9.65731e-12	-0.284246	0.601325	0.160955	
77325	1.63416	-0.385744	-0.657089	0.000875434	9.31839e-05	1.93416e-11	-0.276502	0.596566	0.16118	
77715	1.63739	-0.385249	-0.659459	0.000719369	0.000230008	3.79763e-11	-0.278084	0.677056	0.158234	
77836	1.63517	-0.384539	-0.658229	0.000159442	-0.000225375	2.25517e-11	-0.277304	0.671664	0.150345	
78646	1.63818	-0.379404	-0.660249	-0.0010906	-0.000207499	1.89128e-11	-0.258773	0.606093	0.157606	
78825	1.63929	-0.383088	-0.660377	-0.000596698	0.000565599	2.14694e-11	-0.238957	0.589372	0.238549	
78885	1.6406	-0.382398	-0.660806	-0.000183585	-0.0004147	2.12983e-11	-0.279008	0.684743	0.236647	
79606	1.6328	-0.386478	-0.661482	-0.000113971	-0.000117563	1.44264e-11	-0.276773	0.646445	0.160294	
79966	1.63928	-0.382069	-0.661368	0.000506122	0.000649912	5.6816e-11	-0.278925	0.68164	0.236733	
80355	1.63565	-0.386099	-0.658892	0.000268537	-0.00034138	2.92538e-11	-0.261243	0.598966	0.162521	
80415	1.63544	-0.387076	-0.657915	-1.84021e-05	-0.000370365	2.87684e-11	-0.269168	0.672371	0.159824	
80445	1.63544	-0.387076	-0.657915	-0.000828222	0.000636952	9.65384e-12	-0.275421	0.610029	0.160897	
81135	1.63386	-0.386483	-0.658948	-0.000205894	0.000738491	2.82683e-11	-0.276414	0.592176	0.157046	
81885	1.63132	-0.386471	-0.659911	-9.37126e-05	0.00080253	4.80767e-11	-0.276721	0.646358	0.160256	
82065	1.63552	-0.385778	-0.659741	-0.000292051	-0.000154123	9.57595e-12	-0.278009	0.689251	0.159599	
82936	1.64565	-0.379965	-0.6583	0.000900626	-0.000250641	2.88728e-11	-0.21921	0.662121	0.160404	
83025	1.64166	-0.382441	-0.659178	0.000663502	-0.000232191	1.43786e-11	-0.276756	0.679789	0.159762	
83055	1.64166	-0.382441	-0.659178	9.65114e-06	0.000337644	2.41684e-11	-0.282081	0.597344	0.161122	
83355	1.63307	-0.385742	-0.661709	-0.000214275	-0.000752497	3.72718e-11	-0.276645	0.688202	0.248479	
83385	1.63307	-0.385742	-0.661709	0.000431499	-0.0005123	2.14388e-11	-0.205638	0.678492	0.238209	
83415	1.63307	-0.385742	-0.661709	-0.000666853	-0.000229909	1.85052e-11	-0.268457	0.681699	0.15421	
83685	1.63778	-0.383122	-0.659395	-0.00025937	-0.000160297	2.76067e-11	-0.276913	0.635206	0.230056	
83715	1.63778	-0.383122	-0.659395	0.000941833	0.000369531	1.84357e-11	-0.276499	0.6785	0.153631	
83806	1.63819	-0.381918	-0.659763	-0.00065629	-0.00036552	2.42187e-11	-0.23027	0.682363	0.161458	
84165	1.63611	-0.383947	-0.658878	0.000136809	0.000157039	1.84386e-11	-0.278277	0.692344	0.153655	
84526	1.63415	-0.384807	-0.6627	0.000569717	-0.000595133	2.82856e-11	-0.276941	0.682763	0.235713	
84886	1.64207	-0.379025	-0.65972	8.54334e-05	-0.000596638	2.48344e-11	-0.276071	0.609924	0.165563	
85425	1.63737	-0.383673	-0.662954	0.000277768	9.43391e-05	7.78437e-11	-0.276761	0.680444	0.23589	
85456	1.63737	-0.383673	-0.662954	0.000415065	0.000778849	6.50581e-11	-0.27491	0.673981	0.1549	
85725	1.64114	-0.381906	-0.662129	-0.000587859	0.00121496	1.75045e-11	-0.276434	0.678887	0.194495	
86565	1.63659	-0.384774	-0.660455	0.000946432	-0.000334871	3.36599e-11	-0.210709	0.665747	0.224399	
87105	1.63673	-0.384435	-0.660318	-2.12526e-05	0.000313552	4.28678e-11	-0.27412	0.600545	0.204132	
87255	1.63622	-0.384117	-0.659995	0.000868687	0.00031053	4.26353e-11	-0.241598	0.678864	0.236863	
87976	1.63272	-0.379915	-0.66833	0.000419943	0.000150085	1.38597e-11	-0.354115	0.567344	0.230995	
88426	1.63128	-0.378355	-0.665775	0.000268781	9.60513e-05	3.51525e-11	-0.320534	0.553005	0.167393	
89115	1.62211	-0.385581	-0.668654	0.000134567	4.80817e-05	4.1233e-11	-0.557827	0.449131	0.274886	
89685	1.59871	-0.380517	-0.656565	7.64556e-05	2.72618e-05	-2.81849e-10	-0.312088	0.698188	-1.04389	
89715	1.59871	-0.380517	-0.656565	7.38231e-05	2.63379e-05	-1.12909e-10	-0.0760327	0.70291	-1.25454	
90046	1.59285	-0.417541	-0.76663	5.3247e-05	1.90316e-05	-3.9377e-10	-0.164542	0.487329	-2.18761	
90405	1.60288	-0.503524	-0.965177	0.0732049	0.0178412	5.87252e-10	-0.143066	0.419289	3.26251	
90435	1.60288	-0.503524	-0.965177	0.178036	0.023934	6.27525e-10	-0.166307	0.663578	2.98822	
90736	1.58941	-0.52053	-1.14235	0.220889	-0.00185078	1.82994e-09	-0.0232419	0.564442	4.69214	
90765	1.58941	-0.52053	-1.14235	0.145125	0.0170499	4.42131e-10	-0.225389	0.595439	4.91257	
90885	1.60339	-0.532791	-1.22229	0.0808221	-0.00826206	9.33897e-11	-0.249163	0.566472	3.11299	
91095	1.60358	-0.542061	-1.22632	0.0242201	-0.0179713	-3.12015e-11	-0.133329	0.613165	-0.0866709	
91546	1.55405	-0.519464	-1.16737	-0.00628867	0.0202	-2.96361e-11	-0.201999	0.536236	-0.329289	
92235	1.58004	-0.467974	-0.950705	0.0194801	0.0243743	5.15375e-11	-0.160146	0.56175	0.21474	
92655	1.56683	-0.458061	-0.938365	0.0308253	0.01296	4.79281e-11	-0.35241	0.46962	0.228229	
92685	1.56683	-0.458061	-0.938365	0.0326324	0.00510756	1.39531e-11	-0.27119	0.528177	0.232551	
92746	1.56526	-0.454537	-0.930915	0.0326503	0.00435288	2.95442e-11	-0.236729	0.532227	0.328269	
93316	1.486	-0.399341	-0.804053	0.0303493	-0.00133448	2.48219e-11	-0.0536907	0.493828	0.103424	
93435	1.51762	-0.4275	-0.794085	0.0069733	-0.00468936	2.46381e-11	-0.136089	0.51983	0.164254	
93555	1.50932	-0.427247	-0.80748	0.0121131	-0.00955215	5.766e-11	-0.181356	0.433278	0.320333	
93735	1.50778	-0.423748	-0.813008	-0.0211177	-0.0101267	5.66113e-11	-0.197967	0.44791	0.377409	
93795	1.50392	-0.429094	-0.823603	-0.0303361	-0.00989777	3.76716e-11	-0.229285	0.540621	0.418573	
94215	1.51711	-0.392662	-0.744461	-0.0789299	-0.0337124	5.6682e-11	-0.0532618	0.386955	0.3149	
94275	1.52647	-0.390076	-0.741224	-0.0878832	-0.0354226	5.74198e-11	-0.20301	0.573588	0.239249	
94785	1.59023	-0.420383	-0.709671	-0.0939325	-0.0664874	5.22469e-11	-0.286081	0.408627	0.108848	
94815	1.59023	-0.420383	-0.709671	-0.0982466	-0.0602552	2.09976e-11	-0.087306	0.41169	0.139984	
94996	1.62722	-0.427197	-0.646517	-0.0869372	-0.0661034	1.02174e-11	-0.257058	0.415755	0.0851454	
95265	1.65687	-0.452947	-0.637631	-0.0731078	-0.0604509	1.61072e-11	-0.193649	0.355033	0.178969	
95805	1.63719	-0.3719	-0.275862	-0.0543254	-0.0573555	3.51521e-11	-0.256991	0.296551	0.167391	
95925	1.63983	-0.377559	-0.270295	-0.0421123	-0.0447669	7.05711e-11	-0.230085	0.512898	0.123809	
96075	1.67269	-0.385516	-0.219706	-0.0478493	-0.0375681	2.83216e-11	-0.276488	0.466568	0.236014	
96105	1.67269	-0.385516	-0.219706	-0.0420853	-0.044795	-5.28495e-12	-0.212442	0.505835	-0.035233	
96226	1.67301	-0.366389	-0.147238	-0.0469118	-0.0434327	2.18782e-11	-0.121307	0.45058	0.182318	
96405	1.67904	-0.366568	-0.145525	-0.0669256	-0.0268711	1.29187e-11	-0.248139	0.478639	0.0538277	
96525	1.6365	-0.30031	-0.0968864	-0.0759274	-0.0114062	1.69924e-11	-0.244728	0.407994	0.0629347	
96915	1.67323	-0.284533	0.00177841	-0.107443	0.0339658	1.81503e-11	-0.16853	0.509864	0.20167	
97065	1.7214	-0.303712	0.0121477	-0.132572	0.0359722	1.56244e-10	-0.306299	0.450863	0.274112	
97276	1.76724	-0.298512	0.0164282	-0.132213	0.0591731	4.12303e-11	-0.394755	0.4013	0.343586	
97485	1.82652	-0.272026	0.00387543	-0.158874	0.0874069	1.67378e-11	-0.213553	0.357671	0.278963	
97996	1.97878	-0.194968	-0.00117277	-0.158083	0.114995	4.04131e-11	-0.354066	0.378012	0.192444	
98056	2.00562	-0.180556	-0.0177583	-0.157027	0.11927	4.0671e-11	-0.425471	0.266366	0.193671	
98206	2.0633	-0.162079	0.00760285	-0.146098	0.120637	4.84408e-11	-0.478073	0.43032	0.14679	
98265	2.10335	-0.150237	0.0170376	-0.135485	0.123283	2.7989e-11	-0.369063	0.479023	0.155494	
98415	2.16179	-0.116064	0.0292627	-0.126013	0.150841	4.35258e-11	-0.265336	0.392402	0.207266	
99675	2.27523	0.354004	0.00164216	0.0360895	0.263332	5.78404e-12	-0.29909	0.59624	0.0148309	
100216	2.17618	0.547864	-0.0156164	0.0955588	0.223132	4.30828e-11	-0.363489	0.522169	0.0897559	
100305	2.1592	0.573064	-0.0181244	0.0996183	0.206678	2.10349e-11	-0.375612	0.543291	0.0701163	
100666	2.05211	0.688649	-0.044235	0.139757	0.168378	1.49777e-11	-0.288365	0.523178	0.0416047	
100875	1.99558	0.772469	-0.0455216	0.164857	0.171504	-2.99764e-11	-0.32373	0.539518	-0.0832679	
101176	1.91706	0.825032	-0.0427229	0.200246	0.152187	3.30906e-13	-0.250638	0.563964	0.00183836	
101325	1.85609	0.8556	-0.0586571	0.234646	0.155258	8.78258e-12	-0.325948	0.544109	0.0487921	
101686	1.73339	0.909559	-0.0369719	0.219895	0.171416	-2.47592e-11	-0.307601	0.541838	-0.0589505	
101746	1.72804	0.985627	-0.0612892	0.181218	0.154491	2.48756e-11	-0.264019	0.644515	0.165838	
102315	1.54834	1.10815	-0.0627077	0.182962	0.110419	6.09116e-11	-0.272262	0.472119	0.203039	
102795	1.47068	1.16582	-0.0721231	0.0692784	0.0858962	-3.6387e-12	-0.254367	0.459789	-0.0303225	
102825	1.47068	1.16582	-0.0721231	0.079398	0.0790722	-6.34081e-12	-0.279024	0.549303	-0.10568	
103065	1.42381	1.21798	-0.0580944	0.0401778	0.0634028	1.55775e-11	-0.210508	0.554684	0.129812	
103966	1.38751	1.29973	-0.0713648	-0.00405937	-0.0485403	4.42626e-11	-0.216402	0.482612	0.184428	
104055	1.38358	1.28692	-0.0639893	-0.0162376	-0.0513696	-3.87489e-11	-0.300084	0.477122	-0.0561578	
104086	1.38358	1.28692	-0.0639893	-0.023266	-0.0513917	2.19129e-11	-0.12586	0.415404	0.0521735	
104115	1.38358	1.28692	-0.0639893	-0.023266	-0.0513917	6.73039e-11	-0.12586	0.415404	0.0521735	
104206	1.39591	1.27774	-0.0605259	-0.0213216	-0.0638077	2.88651e-11	-0.137283	0.332756	0.120271	
104595	1.39073	1.23658	-0.0799161	-0.0105066	-0.0940212	-4.49417e-13	-0.20768	0.547969	-0.00249676	
104955	1.36546	1.22239	-0.0795758	-0.00807742	-0.111235	7.3918e-12	-0.0936224	0.466936	0.123197	
105435	1.3622	1.14205	-0.0998875	-0.0121839	-0.120507	3.00727e-11	-0.167005	0.455515	0.125303	
106545	1.31673	0.903451	-0.0941355	0.0027141	-0.144558	-1.45962e-11	-0.245173	0.455097	-0.0973082	
107296	1.28638	0.642589	-0.0499613	0.0182181	-0.140342	-3.22923e-11	-0.228463	0.413854	-0.119601	
107325	1.28638	0.642589	-0.0499613	0.0144953	-0.134686	5.86523e-11	-0.242982	0.322246	0.177734	
107536	1.28935	0.584263	-0.0501726	0.024057	-0.120659	-1.9307e-11	-0.141038	0.55581	-0.0919381	
107685	1.26096	0.560413	-0.0459031	0.0313579	-0.121294	-2.64177e-12	-0.118295	0.44219	-0.0146765	
107715	1.26096	0.560413	-0.0459031	0.0345902	-0.121425	-1.75262e-11	-0.0846516	0.464476	-0.0389471	
108016	1.21783	0.543532	-0.0289974	0.0300363	-0.0667557	-1.49075e-11	-0.191164	0.424427	-0.0552129	
108045	1.21783	0.543532	-0.0289974	0.015657	-0.0623132	-4.74452e-12	-0.152481	0.562519	-0.0395377	
108435	1.2034	0.475407	-0.058342	0.0395798	-0.014656	1.46367e-11	-0.133671	0.523241	0.121972	
108825	1.17965	0.475574	-0.059336	0.0429767	0.0363531	1.89829e-11	-0.257541	0.440992	0.158191	
108885	1.16932	0.480419	-0.0623999	0.0330117	0.0296367	-7.92847e-13	-0.27463	0.494591	-0.00293647	
108915	1.16932	0.480419	-0.0623999	0.0387032	0.0416957	-2.26813e-12	-0.242227	0.463952	-0.0151209	
109125	1.16846	0.4857	-0.0685766	0.0344019	0.0587617	2.49501e-11	-0.364059	0.397533	0.0924076	
109155	1.16846	0.4857	-0.0685766	0.0280668	0.0571262	3.79662e-11	-0.341876	0.460875	0.158192	
109306	1.16905	0.497428	-0.0567869	0.0285667	0.0691984	-1.37664e-11	-0.451855	0.428155	-0.11472	
109366	1.17864	0.488791	-0.0592373	0.0335929	0.0727522	1.73316e-11	-0.32964	0.566147	0.115544	
109515	1.17712	0.50073	-0.062902	0.0139991	0.0941527	1.07841e-11	-0.44303	0.399296	0.0399412	
109575	1.17848	0.502357	-0.0591439	0.00892454	0.091142	4.50101e-12	-0.438047	0.419198	0.0750169	
109606	1.17848	0.502357	-0.0591439	0.00385939	0.0862896	1.41004e-11	-0.310449	0.486853	0.0587517	
110656	1.2036	0.561208	-0.0349626	-0.0333791	-0.006416	-8.05204e-12	-0.351597	0.368979	-0.0447335	
110805	1.203	0.573576	-0.0352728	-0.033766	-0.00512519	6.15642e-13	-0.300969	0.414814	0.0102607	
111015	1.20628	0.56411	-0.0360434	-0.0425786	-0.0073529	4.85512e-11	-0.192421	0.434374	0.323675	
111106	1.20634	0.568291	-0.0416315	-0.0225986	-0.0133511	9.25196e-11	-0.332551	0.431057	0.23723	
111166	1.19837	0.569969	-0.0414071	-0.0161179	-0.0138376	7.84735e-11	-0.412366	0.414259	0.217982	
111465	1.22937	0.550825	-0.0417621	-0.0158152	-0.0341465	4.10832e-12	-0.228875	0.466361	0.034236	
111526	1.23496	0.55002	-0.0417951	-0.00653583	-0.040911	-1.27215e-11	-0.336678	0.392671	-0.0530062	
111856	1.21413	0.546131	-0.0462991	0.0189541	-0.0766711	-5.24981e-11	-0.251126	0.49344	-0.218742	
112275	1.15837	0.54132	-0.0662801	0.045385	-0.0669782	-2.29676e-11	-0.29692	0.423369	-0.127598	
112395	1.15026	0.543885	-0.0657337	0.0539244	-0.0601721	4.0316e-11	-0.192199	0.327801	0.0639937	
112605	1.12331	0.540473	-0.065417	0.0453993	-0.0443084	-1.38475e-11	-0.199841	0.377892	-0.0512871	
113295	1.08897	0.454638	-0.112616	0.0575645	-0.0276277	-3.90214e-12	-0.242233	0.399438	-0.0260143	
113655	1.03353	0.433418	-0.118528	0.0377141	0.0512906	1.95616e-11	-0.281745	0.330809	0.0815067	
113836	1.02868	0.450489	-0.131778	0.01164	0.0955795	1.1927e-10	-0.314255	0.415773	0.198783	
114315	1.05763	0.491878	-0.121034	-0.0058698	0.18642	1.28436e-11	-0.492905	0.51509	0.0428121	
114465	1.06551	0.49759	-0.120973	-0.00601086	0.217448	1.46241e-11	-0.416834	0.322695	0.0974941	
114796	1.06327	0.622709	-0.0983629	-0.000981532	0.258499	2.97911e-11	-0.470292	0.489317	0.141862	
115125	1.05465	0.69707	-0.0931691	0.036068	0.249711	-1.63314e-11	-0.359968	0.480223	-0.18146	
115245	1.07143	0.689951	-0.0954958	0.0491182	0.203881	-2.249e-11	-0.45929	0.454502	-0.149933	
115275	1.07143	0.689951	-0.0954958	0.0498175	0.202089	-8.07863e-12	-0.306752	0.468773	-0.0538575	
115336	1.06112	0.687289	-0.0913606	0.07732	0.187306	1.13898e-12	-0.410109	0.437109	0.00759319	
115605	1.01046	0.829254	-0.085525	0.0871073	0.140394	-6.19511e-12	-0.395886	0.351051	-0.0688346	
116025	0.958463	0.881585	-0.0859555	0.0971635	0.109022	-4.3885e-12	-0.327519	0.507124	-0.0731416	
116325	0.911788	0.906819	-0.0854961	0.100111	0.091861	1.56008e-11	-0.361926	0.527954	0.130007	
116445	0.896154	0.920723	-0.0839531	0.1252	0.0683476	5.41579e-12	-0.217112	0.443541	0.0601754	
116476	0.896154	0.920723	-0.0839531	0.133403	0.0663315	-1.36863e-11	-0.293965	0.477802	-0.0456211	
116745	0.866409	0.969581	-0.0992425	0.0755343	0.0767008	8.40473e-13	-0.322612	0.467857	0.00933859	
117825	0.771368	1.01425	-0.136099	0.066794	0.00327039	3.76673e-11	-0.0647762	0.43491	0.179368	
117945	0.757354	1.01771	-0.13941	0.0590238	-0.00941813	1.55114e-11	-0.35701	0.487381	0.172349	
118125	0.749508	1.02143	-0.13255	0.0660034	-0.0387268	1.98234e-11	-0.208619	0.504295	0.0600708	
118546	0.697397	0.995946	-0.120218	0.0414772	-0.0794666	-6.19781e-12	-0.0650693	0.52739	-0.0187813	
118575	0.697397	0.995946	-0.120218	0.03755	-0.074468	5.73791e-11	-0.208957	0.365353	0.159386	
118666	0.685939	0.991114	-0.122159	0.0250761	-0.0778528	1.75294e-12	-0.171775	0.440807	0.0116862	
119265	0.670618	0.923978	-0.132569	-0.02955	-0.0788097	-1.2352e-11	-0.112367	0.379724	-0.102933	
119355	0.677671	0.922632	-0.13596	-0.0118215	-0.0844998	-5.38757e-11	-0.117987	0.447206	-0.19954	
119655	0.676584	0.905535	-0.138587	-0.0161875	-0.0800811	1.36461e-11	-0.13898	0.382797	0.0568589	
120075	0.685752	0.859942	-0.141784	-0.0458085	-0.0776114	1.15506e-10	-0.265371	0.438203	0.240638	
120435	0.680979	0.825845	-0.157135	-0.0479131	-0.0291292	3.48003e-11	-0.174461	0.417276	0.165716	
120465	0.680979	0.825845	-0.157135	-0.0416775	-0.0406008	1.19297e-11	-0.178108	0.548601	0.0497072	
120495	0.680979	0.825845	-0.157135	-0.0577086	-0.0267914	4.10807e-11	-0.258135	0.505596	0.114113	
120766	0.690908	0.796677	-0.156733	-0.0799843	-0.000953439	-9.87728e-12	-0.227761	0.417161	-0.0548738	
120795	0.690908	0.796677	-0.156733	-0.0609594	2.95477e-05	-3.8312e-11	-0.172415	0.39357	-0.0851378	
120886	0.69879	0.789912	-0.1542	-0.0675179	0.016933	-1.03904e-10	-0.246854	0.602523	-0.346348	
121305	0.750475	0.771951	-0.140342	-0.0663181	0.0555942	-3.4141e-12	-0.214103	0.43104	-0.0379344	
121485	0.776104	0.786891	-0.139754	-0.102047	0.0698221	-1.63011e-12	-0.264015	0.580117	-0.0135843	
121606	0.795575	0.790275	-0.143321	-0.0992583	0.0651003	1.35942e-11	-0.209054	0.455502	0.0906278	
121635	0.795575	0.790275	-0.143321	-0.11643	0.0725531	8.91831e-12	-0.181916	0.417352	0.148639	
121755	0.824342	0.817259	-0.147588	-0.125185	0.0857925	3.66654e-12	-0.315349	0.339301	0.0407393	
121936	0.863925	0.819996	-0.143396	-0.132001	0.11625	3.01399e-12	-0.335048	0.386924	0.0334888	
121965	0.863925	0.819996	-0.143396	-0.128967	0.116668	2.84252e-11	-0.225665	0.419956	0.105279	
121996	0.863925	0.819996	-0.143396	-0.138135	0.123201	5.51375e-11	-0.313272	0.377638	0.122528	
122056	0.905572	0.822299	-0.130931	-0.12732	0.126864	3.52169e-11	-0.246447	0.40826	0.19565	
122205	0.909313	0.831221	-0.133521	-0.126627	0.140955	1.07768e-10	-0.212526	0.456724	0.17106	
122595	0.992132	0.916599	-0.12171	-0.0549231	0.194705	5.41008e-11	-0.276296	0.374076	0.15028	
122626	0.992132	0.916599	-0.12171	-0.0566615	0.20443	5.25702e-11	-0.279062	0.412773	0.087617	
122655	0.992132	0.916599	-0.12171	-0.0558129	0.210299	-6.51777e-12	-0.208957	0.372755	-0.0434518	
122745	1.02028	0.980968	-0.122338	-0.0403579	0.230914	2.24723e-11	-0.307443	0.352594	0.0680978	
122956	1.04721	1.04106	-0.12117	-0.0564972	0.255026	2.43743e-12	-0.351191	0.443313	0.0270825	
122985	1.04721	1.04106	-0.12117	-0.0409675	0.257962	-3.12411e-11	-0.311196	0.354887	-0.0867809	
123045	1.05716	1.06728	-0.115153	-0.0373987	0.252009	-2.07084e-11	-0.257219	0.464881	-0.0530986	
123135	1.06327	1.08459	-0.113552	-0.0264146	0.267552	-9.53932e-12	-0.279824	0.42164	-0.105992	
123256	1.07472	1.13984	-0.114689	-0.0269303	0.258593	-1.57211e-11	-0.386945	0.425784	-0.0476396	
123825	1.1016	1.29774	-0.11923	-0.00446481	0.189801	1.24349e-11	-0.312072	0.350288	0.0690825	
123885	1.10645	1.29821	-0.1144	0.00366849	0.200218	1.0958e-11	-0.254928	0.317309	0.0521811	
124335	1.11516	1.40232	-0.125079	0.0267845	0.179908	3.13545e-12	-0.215782	0.389253	0.0348383	
124546	1.10274	1.45042	-0.126448	0.0298501	0.176655	6.45576e-12	-0.255301	0.55993	0.0307417	
124606	1.10652	1.45777	-0.128412	0.0269954	0.177913	6.46238e-11	-0.298477	0.363651	0.359021	
124635	1.10652	1.45777	-0.128412	0.0150349	0.175341	2.03566e-11	-0.264777	0.391569	0.226184	
124666	1.10652	1.45777	-0.128412	0.0200664	0.172321	2.92639e-11	-0.331936	0.336191	0.162577	
124726	1.11705	1.47816	-0.127206	0.0254038	0.171993	1.43899e-11	-0.320244	0.360694	0.0685235	
124815	1.11835	1.49417	-0.12997	0.0298959	0.16997	7.21046e-12	-0.432929	0.411356	0.0200291	
124966	1.11219	1.50071	-0.13521	0.0275892	0.147451	2.39058e-11	-0.469703	0.413734	0.0996073	
124995	1.11219	1.50071	-0.13521	0.0253924	0.15	4.1266e-11	-0.289547	0.381109	0.152837	
125175	1.09502	1.5427	-0.145216	0.0351281	0.125459	-4.68104e-11	-0.293183	0.320017	-0.104023	
125205	1.09502	1.5427	-0.145216	0.0370262	0.121021	2.33028e-11	-0.305551	0.431793	0.19419	
125506	1.05348	1.56245	-0.150442	0.0584471	0.0736518	2.19783e-10	-0.295734	0.181823	0.261647	
126135	1.02185	1.64948	-0.168566	0.119723	0.00294282	3.22288e-11	-0.143106	0.303783	0.0976631	
126285	0.995138	1.66355	-0.165307	0.134322	-0.0166127	4.73056e-12	-0.201787	0.388709	0.0525618	
126585	0.898001	1.64639	-0.187008	0.144477	-0.000735656	2.93728e-11	-0.283602	0.309499	0.163182	
126616	0.898001	1.64639	-0.187008	0.152376	-0.00337419	2.92962e-11	-0.214748	0.476927	0.162757	
126705	0.885568	1.66531	-0.186262	0.145606	0.00114054	5.3434e-11	-0.196351	0.445882	0.0890566	
126736	0.885568	1.66531	-0.186262	0.155903	-0.00121205	2.13398e-11	-0.166129	0.431742	0.0355663	
126915	0.84644	1.6762	-0.190377	0.153864	0.00683023	1.53404e-11	-0.164434	0.497616	0.0568162	
126945	0.84644	1.6762	-0.190377	0.162268	0.00608603	4.66832e-12	-0.309444	0.345418	0.0778054	
126975	0.84644	1.6762	-0.190377	0.162338	0.00448845	8.28229e-12	-0.1563	0.588741	0.0552153	
127335	0.765053	1.69284	-0.196416	0.166073	0.00222171	4.78194e-12	-0.289596	0.435406	0.0318796	
127365	0.765053	1.69284	-0.196416	0.162912	0.0041181	5.81478e-12	-0.107894	0.516361	0.0484565	
127965	0.607868	1.73201	-0.196334	0.120987	0.0299211	-8.01527e-12	-0.15385	0.35999	-0.033397	
128176	0.591322	1.73968	-0.192976	0.0890039	0.0245271	-3.23033e-12	-0.279381	0.521122	-0.0269194	
128205	0.591322	1.73968	-0.192976	0.0872473	0.0306695	-9.50747e-11	-0.165976	0.615024	-0.176064	
128475	0.556941	1.73345	-0.196941	0.0511622	0.00198083	-5.96991e-12	-0.178579	0.554196	-0.0104735	
128596	0.548559	1.74211	-0.204456	0.0579637	-0.02221	-3.55413e-11	-0.269634	0.576862	-0.0740445	
128775	0.530421	1.7353	-0.204331	0.045189	-0.0267035	4.25149e-11	-0.344387	0.516446	0.177145	
128985	0.524724	1.71594	-0.204987	0.022973	-0.0513565	1.332e-11	-0.262616	0.405713	0.0887999	
129195	0.509133	1.71926	-0.215476	0.00102088	-0.0543257	1.25166e-11	-0.0915211	0.576449	0.104305	
129675	0.50953	1.67884	-0.230058	-0.0595183	-0.096887	4.77197e-11	-0.227952	0.335184	0.144605	
130155	0.538189	1.60073	-0.23973	-0.0655527	-0.113869	1.66194e-11	-0.0900629	0.313001	0.0461649	
130366	0.565391	1.58622	-0.235773	-0.0699173	-0.0998459	-1.3037e-11	-0.0650676	0.367671	-0.0482851	
130395	0.565391	1.58622	-0.235773	-0.077258	-0.0960003	-1.5096e-12	-0.209742	0.324364	-0.00559111	
130575	0.587586	1.49844	-0.233221	-0.0670444	-0.0725433	1.13322e-11	-0.206388	0.477467	0.0343401	
131025	0.609757	1.42945	-0.216418	-0.0578162	-0.0534307	1.07191e-11	-0.314965	0.359272	0.0446628	
132405	0.735824	1.35398	-0.178847	-0.0775985	-0.0896822	-8.96334e-11	-0.328546	0.322729	-0.213413	
132465	0.73826	1.34549	-0.178587	-0.0742565	-0.080486	-2.61693e-11	-0.30264	0.318304	-0.0545194	
132856	0.758471	1.29308	-0.16625	-0.074464	-0.0824829	1.95758e-11	-0.0728668	0.503311	0.108755	
133065	0.772897	1.28186	-0.16445	-0.0838864	-0.0609309	5.36088e-11	-0.211087	0.452482	0.119131	
133186	0.786569	1.26245	-0.168909	-0.0622862	-0.0520718	-2.87209e-11	-0.237375	0.405812	-0.136766	
133605	0.830607	1.22201	-0.173171	-0.100064	-0.0745988	-3.99108e-13	-0.110132	0.332538	-0.00166295	
133906	0.861955	1.18863	-0.174647	-0.105335	-0.0777752	-3.92701e-11	-0.208651	0.435911	-0.119	
134085	0.869691	1.15379	-0.177375	-0.0864016	-0.0699666	-1.52191e-12	-0.219431	0.435102	-0.00507304	
134236	0.881873	1.14057	-0.175882	-0.0773949	-0.0391138	8.01566e-12	-0.372943	0.299157	0.133594	
134355	0.890031	1.12862	-0.17709	-0.0795819	-0.0429625	1.91134e-13	-0.360848	0.355295	0.00212371	
134625	0.922262	1.1098	-0.170949	-0.107485	-0.0225759	-1.10456e-11	-0.299384	0.318583	-0.122728	
135015	0.964237	1.09759	-0.16691	-0.0815045	0.00956876	-1.83994e-11	-0.202618	0.372973	-0.0511093	
135105	0.975826	1.09876	-0.164596	-0.100994	0.0252596	1.71663e-11	-0.260283	0.20751	0.114442	
135436	1.01031	1.11719	-0.171966	-0.0727548	0.0973778	-5.41939e-11	-0.32282	0.47453	-0.112904	
135615	1.01733	1.12082	-0.165498	-0.0545592	0.123691	3.59313e-11	-0.346322	0.452604	0.239542	
135825	1.02563	1.12333	-0.161506	-0.0399842	0.166008	3.31971e-11	-0.336321	0.483251	0.0650924	
135855	1.02563	1.12333	-0.161506	-0.0448808	0.163904	-2.56789e-12	-0.375548	0.339313	-0.0285321	
136545	1.06316	1.2399	-0.195697	0.024176	0.0685206	2.34887e-11	-0.265828	0.491001	0.0602275	
136635	1.0514	1.24433	-0.199529	0.023576	0.0447603	7.97592e-11	-0.362186	0.364108	0.177243	
136666	1.0514	1.24433	-0.199529	0.0209065	0.0547605	1.05022e-11	-0.251468	0.440437	0.0269288	
136995	1.05501	1.2683	-0.196176	0.0466581	-0.0382709	4.74303e-12	-0.177483	0.47976	0.0121616	
137325	1.0268	1.26357	-0.192178	0.0723856	-0.0904484	-3.6442e-11	-0.239233	0.41283	-0.151842	
137535	1.01427	1.24557	-0.19983	0.0498974	-0.116003	-1.81101e-11	-0.228068	0.384524	-0.0464362	
137625	1.0078	1.24031	-0.204807	0.0529128	-0.123347	-4.40408e-11	-0.221441	0.449898	-0.133457	
137716	0.994716	1.22436	-0.198288	0.0394011	-0.125232	-3.10202e-11	-0.287248	0.264661	-0.11489	
137776	0.995172	1.21476	-0.204682	0.0319709	-0.125333	-1.89099e-12	-0.150163	0.547017	-0.0157582	
138075	0.982844	1.17464	-0.215808	-0.0111186	-0.104365	3.47346e-11	-0.190078	0.385378	0.105256	
138915	0.988706	1.10402	-0.21198	-0.0496315	0.00272878	8.40309e-11	-0.22372	0.434045	0.311226	
138945	0.988706	1.10402	-0.21198	-0.0306605	0.00733006	1.1509e-11	-0.213331	0.48557	0.191817	
139185	1.00127	1.10032	-0.214154	-0.0428704	0.00423344	-6.56864e-12	-0.184635	0.474285	-0.043791	
139305	1.02129	1.10407	-0.214609	-0.0303368	-0.0116069	-3.37738e-11	-0.327203	0.446734	-0.125088	
139606	1.02115	1.10342	-0.205647	-0.0296368	0.00492131	-4.14221e-11	-0.157225	0.551757	-0.0920492	
139666	1.02921	1.10537	-0.201476	-0.0287794	0.0163071	1.45468e-11	-0.247706	0.424272	0.0484892	
139995	1.04229	1.09741	-0.203333	-0.0138725	0.0214805	5.21338e-13	-0.125838	0.423447	0.00434448	
140026	1.04229	1.09741	-0.203333	-0.0138725	0.0214805	4.56171e-12	-0.125838	0.423447	0.00434448	
140086	1.03861	1.10155	-0.203512	-0.0150651	0.0220847	6.00079e-11	-0.332353	0.328595	0.100013	
140115	1.03861	1.10155	-0.203512	-0.0226605	0.0172555	1.80248e-11	-0.315432	0.276441	0.200276	
140175	1.04128	1.10033	-0.203165	-0.0193374	0.0154476	6.89166e-12	-0.248081	0.393041	0.114861	
140206	1.04128	1.10033	-0.203165	-0.0193416	0.026869	3.05904e-11	-0.204463	0.488409	0.0679786	
140505	1.04849	1.10501	-0.199425	-0.00396713	-0.0192429	-4.42744e-12	-0.287583	0.487875	-0.00819897	
140685	1.06104	1.11429	-0.202764	-0.00286958	-0.0642707	1.0796e-11	-0.370045	0.396308	0.0719734	
140745	1.06233	1.11414	-0.201395	0.0046359	-0.0672504	-1.39081e-11	-0.0716809	0.428787	-0.0927205	
140805	1.06141	1.11461	-0.201837	-0.00719644	-0.0671448	-1.2826e-11	-0.203377	0.431537	-0.106884	
141075	1.05621	1.07962	-0.185738	-0.0316826	-0.0875258	2.40331e-12	-0.294376	0.404752	0.0400552	
141166	1.05946	1.06555	-0.177002	-0.0347113	-0.0813111	-3.99662e-12	-0.303386	0.336719	-0.0190315	
141316	1.08103	1.05934	-0.179304	-0.0592521	-0.0569723	2.57754e-11	-0.131325	0.427238	0.171836	
141556	1.09317	1.04314	-0.182461	-0.0866981	-0.0319111	4.53668e-11	-0.22914	0.408419	0.137475	
141735	1.10663	1.0238	-0.18945	-0.0983185	-0.0125943	-1.56675e-11	-0.268029	0.477406	-0.052225	
142215	1.16225	1.04869	-0.183827	-0.0785766	0.146164	-8.82134e-12	-0.279878	0.313449	-0.0735112	
142306	1.17131	1.05783	-0.188214	-0.0686277	0.167498	-3.0986e-11	-0.261656	0.413926	-0.172144	
142515	1.2003	1.08569	-0.17732	-0.0395095	0.204422	-7.11447e-11	-0.331588	0.386466	-0.131749	
142546	1.2003	1.08569	-0.17732	-0.0331865	0.213291	9.67983e-12	-0.34077	0.31493	0.0215107	
142695	1.21686	1.13042	-0.187229	-0.00993737	0.211282	4.71851e-11	-0.413858	0.408765	0.104856	
143055	1.23171	1.2044	-0.197576	0.0134861	0.221997	5.03761e-12	-0.323552	0.304718	0.0335841	
143175	1.23602	1.20433	-0.198988	0.0345336	0.221748	9.96513e-11	-0.502497	0.207224	0.166085	
143206	1.23602	1.20433	-0.198988	0.0445081	0.201305	-7.29312e-13	-0.407921	0.45593	-0.0060776	
143356	1.2358	1.27411	-0.20832	0.0468977	0.197764	8.42069e-12	-0.324731	0.331944	0.028069	
143385	1.2358	1.27411	-0.20832	0.049365	0.196125	-1.47252e-11	-0.344883	0.364336	-0.0701198	
143445	1.23523	1.26613	-0.207063	0.0562585	0.196917	1.79891e-11	-0.287233	0.455659	0.0315598	
143476	1.23523	1.26613	-0.207063	0.0523977	0.187838	-1.04831e-11	-0.438813	0.436637	-0.174718	
143565	1.22498	1.30521	-0.210884	0.0686683	0.168111	3.2438e-12	-0.388476	0.307933	0.0270317	
143806	1.20454	1.33251	-0.22081	0.0379403	0.148012	-5.02568e-13	-0.340941	0.449215	-0.00335045	
144556	1.17804	1.42597	-0.250905	0.045803	0.0837483	6.84152e-11	-0.257101	0.377953	0.175423	
144916	1.17587	1.47186	-0.263595	0.0488553	0.0904286	1.90243e-12	-0.22716	0.293752	0.0158536	
144945	1.17587	1.47186	-0.263595	0.0278313	0.0871175	8.69196e-12	-0.265969	0.426534	0.0241443	
145245	1.16649	1.4778	-0.264956	0.0097713	0.0917508	2.75499e-12	-0.243142	0.326403	0.0459164	
145485	1.16768	1.48952	-0.271031	0.0211768	0.0828818	-8.69774e-12	-0.232257	0.430969	-0.0966416	
145545	1.16993	1.50637	-0.279085	0.0190255	0.0880069	1.68193e-11	-0.240276	0.320247	0.0280321	
145665	1.17032	1.51511	-0.282001	0.0161765	0.103855	-2.86177e-11	-0.367696	0.402878	-0.105991	
145695	1.17032	1.51511	-0.282001	0.0278812	0.10013	-8.77205e-12	-0.205822	0.372268	-0.0584803	
146056	1.18177	1.57889	-0.291768	0.0072217	0.165958	6.11637e-11	-0.405168	0.45879	0.203879	
146295	1.18544	1.64015	-0.303976	-0.011275	0.179127	7.87623e-11	-0.238283	0.40744	0.291712	
146445	1.20575	1.69878	-0.310718	-0.0242399	0.167513	-1.97402e-11	-0.324741	0.474014	-0.109668	
146475	1.20575	1.69878	-0.310718	-0.00808637	0.155418	2.00588e-11	-0.407732	0.385844	0.111438	
146745	1.20729	1.73798	-0.318775	-0.0259607	0.144956	9.69815e-11	-0.216793	0.337018	0.269393	
147165	1.2291	1.80088	-0.321069	-0.0272999	0.102239	-6.82988e-12	-0.155181	0.377222	-0.0189719	
147286	1.23594	1.81726	-0.313818	-0.0222371	0.0981337	3.04928e-11	-0.278704	0.461597	0.145204	
148006	1.30915	1.90762	-0.303347	-0.08303	0.0219311	1.78849e-11	-0.127805	0.351719	0.0596165	
148215	1.31606	1.89808	-0.297006	-0.0887701	0.0201515	-8.44329e-12	-0.114386	0.49756	-0.0703607	
148365	1.3289	1.89178	-0.29615	-0.104599	0.0154402	5.32515e-11	-0.371122	0.39001	0.221881	
148726	1.36484	1.87795	-0.293281	-0.0882356	0.0134128	3.39498e-11	-0.281071	0.210162	0.226332	
149355	1.43645	1.92917	-0.30344	-0.0302671	-0.0263217	1.03069e-11	-0.335958	0.349038	0.0490804	
149686	1.44163	1.90645	-0.293649	-0.00879847	-0.0543222	-1.22632e-11	-0.22214	0.459667	-0.0510965	
149745	1.44139	1.90339	-0.301233	-0.0136344	-0.0649814	-6.08555e-13	-0.132713	0.514911	-0.00676172	
149835	1.43192	1.89967	-0.298898	0.00143641	-0.066535	1.85405e-10	-0.17726	0.463022	0.22072	
149865	1.43192	1.89967	-0.298898	0.0118094	-0.0725661	8.54313e-11	-0.102565	0.42319	0.189847	
149955	1.43216	1.88795	-0.3018	0.0119304	-0.0860899	1.1781e-12	-0.116309	0.544643	0.00981748	
150045	1.43518	1.88631	-0.301664	0.017453	-0.0939882	5.8353e-11	-0.204589	0.451251	0.114418	
150105	1.44047	1.88316	-0.29871	0.0275422	-0.10153	3.01606e-11	-0.137457	0.410591	0.100535	
150136	1.44047	1.88316	-0.29871	0.0361371	-0.10795	4.2919e-11	-0.144187	0.498877	0.204376	
150315	1.43744	1.8755	-0.291799	0.0449188	-0.0995332	-4.69316e-12	-0.143533	0.477937	-0.0782194	
150405	1.4167	1.81309	-0.285143	0.0530872	-0.0938707	8.5038e-12	-0.294776	0.404248	0.0202472	
150526	1.38108	1.80353	-0.287121	0.0691216	-0.0871956	2.3168e-11	-0.1562	0.416128	0.0858073	
150795	1.35659	1.76383	-0.277581	0.0876934	-0.0768554	4.41462e-12	-0.0409725	0.510641	0.147154	
150885	1.35766	1.78635	-0.284342	0.0921447	-0.0770553	4.02227e-11	-0.131925	0.399522	0.167595	
150975	1.35915	1.79089	-0.285803	0.086147	-0.0671441	-2.78008e-11	-0.173225	0.473196	-0.115837	
151545	1.25288	1.77312	-0.296453	0.0958028	0.0826593	-4.26553e-12	-0.248056	0.403902	-0.0203121	
151906	1.22039	1.83709	-0.296234	0.0689589	0.176308	-7.21842e-12	-0.287267	0.368474	-0.0185088	
152236	1.17924	1.87083	-0.304203	0.0323065	0.208679	-5.66718e-11	-0.387667	0.475294	-0.171733	
152325	1.15805	1.88019	-0.307065	0.0277373	0.229365	1.04174e-10	-0.26574	0.383131	0.289373	
152355	1.15805	1.88019	-0.307065	0.0307168	0.227639	1.42649e-11	-0.348803	0.400746	0.0250261	
152415	1.15313	1.88713	-0.311622	0.0156558	0.240542	1.42426e-12	-0.385596	0.572756	0.00678219	
152805	1.17339	2.01283	-0.329143	-0.019465	0.0789021	1.12633e-11	-0.145902	0.432252	0.0750888	
153105	1.18719	2.04324	-0.32772	-0.0266345	-0.0210212	5.84523e-11	-0.191082	0.48755	0.149878	
153135	1.18719	2.04324	-0.32772	-0.0267071	-0.032598	-9.62335e-13	-0.347233	0.491276	-0.00320778	
153255	1.19347	2.04986	-0.323225	-0.0429302	-0.051097	-9.42758e-13	-0.193199	0.488704	-0.00785632	
153495	1.20727	2.04621	-0.322003	-0.0446733	-0.0931051	-2.61095e-11	-0.180388	0.504226	-0.10879	
153555	1.21342	2.03303	-0.320044	-0.0336323	-0.0922168	3.97398e-11	-0.308679	0.537413	0.110388	
153765	1.22975	2.01842	-0.322033	-0.0219051	-0.0995583	2.73576e-11	-0.207229	0.451427	0.22798	
153795	1.22975	2.01842	-0.322033	-0.0159346	-0.0963459	9.71699e-12	-0.0640744	0.535544	0.0294454	
154305	1.24266	1.99124	-0.32041	0.0222358	-0.0345327	7.73671e-12	-0.175969	0.479199	0.0429817	
154905	1.24992	1.95722	-0.297938	-0.069269	0.0437853	-6.78052e-11	-0.188993	0.452434	-0.322882	
155055	1.2673	1.95199	-0.301301	-0.156628	0.0887524	-7.33016e-11	-0.37933	0.398484	-0.187953	
155205	1.27943	1.9502	-0.302189	-0.21713	0.143948	2.78805e-11	-0.43077	0.289689	0.0774458	
155325	1.29522	1.94719	-0.302773	-0.274775	0.186088	3.66182e-11	-0.275381	0.448991	0.0718003	
155745	1.49167	2.10603	-0.325556	-0.480887	0.296181	2.14228e-11	-0.486907	0.21529	0.0595077	
155805	1.52411	2.12227	-0.324205	-0.497774	0.308648	3.55408e-11	-0.526374	0.0514748	0.148087	
156045	1.65405	2.2203	-0.313429	-0.483462	0.302984	8.05393e-11	-0.50373	0.108605	0.178976	
156495	1.90838	2.39529	-0.329783	-0.115624	0.140406	-1.80923e-11	-0.278367	0.115318	-0.0463906	
156525	1.90838	2.39529	-0.329783	-0.126395	0.143801	-1.1341e-11	-0.530175	0.1032	-0.0270024	
156885	2.03167	2.52331	-0.320254	-0.0343096	0.055504	2.19033e-11	-0.270716	0.383293	0.0663735	
157155	2.07227	2.55472	-0.317974	-0.00707905	0.0428793	1.98082e-11	-0.351494	0.405829	0.165068	
157245	2.09086	2.58197	-0.323112	-0.0134266	0.0338484	1.56557e-11	-0.215558	0.464982	0.0372754	
157545	2.09441	2.57092	-0.317402	0.00379834	0.00113363	-3.50924e-12	-0.0860756	0.393094	-0.0129972	
157815	2.08908	2.57157	-0.317796	0.0180723	-0.0183158	-3.29354e-11	-0.117789	0.523478	-0.156835	
158025	2.09197	2.56628	-0.318145	0.0142219	-0.0424517	4.61685e-11	-0.251941	0.340449	0.0809974	
158055	2.09197	2.56628	-0.318145	0.0489119	-0.0860857	6.50823e-12	-0.302212	0.53245	0.0241046	
158145	2.07935	2.57034	-0.330769	0.113501	-0.117976	7.39613e-11	-0.121418	0.404568	0.098615	
158175	2.07935	2.57034	-0.330769	0.126767	-0.113301	6.91381e-11	-0.180124	0.429256	0.128034	
158236	2.03863	2.54351	-0.322515	0.163202	-0.12687	2.24555e-11	-0.134007	0.460713	0.0575781	
158356	2.00402	2.54769	-0.339456	0.404246	-0.105625	-1.81845e-11	-0.27678	0.691679	-0.0466269	
158385	2.00402	2.54769	-0.339456	0.445578	-0.0873988	1.19253e-11	-0.0590803	0.518719	0.0993775	
158415	2.00402	2.54769	-0.339456	0.48995	-0.0739135	2.63335e-13	-0.201946	0.679034	0.00219446	
158445	2.00402	2.54769	-0.339456	0.502307	-0.048792	-1.32148e-11	-0.105085	0.763392	-0.0367077	
158476	2.00402	2.54769	-0.339456	0.549631	-0.0269803	-3.66438e-12	-0.17036	0.776479	-0.0152682	
158806	1.61161	2.5383	-0.353512	0.919677	0.109956	-6.28047e-11	-0.0837192	1.08038	-0.261686	
158835	1.61161	2.5383	-0.353512	0.921773	0.0914343	-3.72803e-11	-0.292318	0.895606	-0.207113	
159646	0.603998	2.77566	-0.41527	1.00188	0.38816	2.28164e-10	-0.36185	1.09709	0.63379	
159705	0.498712	2.79855	-0.442414	0.910916	0.425968	1.01162e-10	-0.559628	1.03371	0.281004	
159765	0.435339	2.83047	-0.463686	0.895952	0.413537	2.71853e-10	-0.587199	0.871899	0.411898	
159885	0.267447	2.90714	-0.491422	0.836322	0.41182	1.54554e-10	-0.454864	0.948803	0.429315	
160005	0.140424	2.94246	-0.492491	0.736947	0.334652	3.52266e-11	-0.613821	0.794487	0.167746	
160095	0.109526	2.94834	-0.501203	0.676432	0.328651	6.97914e-11	-0.51	0.839019	0.178952	
160425	-0.0832867	3.05482	-0.504039	0.269034	0.196452	9.23036e-12	-0.397533	0.768123	0.0439541	
160516	-0.0923673	3.07622	-0.504765	0.254206	0.176309	9.4803e-12	-0.406194	0.765556	0.063202	
160575	-0.122391	3.09369	-0.509797	-0.489241	-0.217541	-0.0549669	-3.93122e+08	2.60777e+08	-4.58058e+07	
161055	-0.190654	3.15598	-0.512985	-1.34366	-1.25117	-0.149365	1.26782e+08	1.97655e+08	-1.56545e+06	
161296	-0.134307	3.19006	-0.507248	-0.224039	0.120815	-4.68257e-12	-0.518841	0.323343	-0.0173428	
161595	-0.031735	3.23161	-0.493184	-0.356216	0.100861	5.82193e-12	-0.359429	0.251259	0.0485161	
161685	0.0069797	3.23945	-0.496939	-0.362876	0.0613147	7.87574e-11	-0.353986	0.25419	0.218771	
162015	0.177269	3.26818	-0.485757	-0.468956	-0.0107925	5.21675e-12	-0.280768	0.317573	0.0217364	
162105	0.184133	3.26388	-0.485872	-0.502245	-0.0310129	1.92442e-11	-0.269225	0.133362	0.106912	
162135	0.184133	3.26388	-0.485872	-0.504139	-0.0396386	-6.77122e-12	-0.410436	0.154847	-0.0564268	
162645	0.606849	3.26278	-0.459225	-0.760844	-0.117241	-5.38345e-11	-0.136484	0.208367	-0.163135	
162676	0.606849	3.26278	-0.459225	-0.795971	-0.11842	-3.47151e-11	-0.117915	0.141011	-0.0826551	
163215	1.10353	3.1491	-0.45965	-0.907897	-0.136053	5.52346e-11	-0.221449	-0.0434768	0.460288	
163485	1.41679	3.08911	-0.430471	-1.09352	-0.166562	1.22173e-10	-0.254822	0.00836247	0.290888	
163816	1.76384	3.00245	-0.402126	-0.634724	-0.0507156	-1.12263e-11	-0.342406	-0.0683051	-0.074842	
164115	1.95943	2.96428	-0.359392	-0.431601	0.00750981	-1.36008e-10	-0.254853	0.0788947	-0.197113	
164146	1.95943	2.96428	-0.359392	-0.389603	0.0192797	-7.69026e-12	-0.340676	0.199461	-0.0256342	
164536	2.10253	2.97353	-0.259641	0.0186464	0.0370124	-7.4322e-11	-0.247399	0.511126	-0.4129	
164655	2.12949	2.96358	-0.295721	0.0394516	0.0114865	-5.00838e-11	-0.265025	0.581957	-0.208682	
164715	2.12801	2.96854	-0.292307	0.0449432	0.00150009	-7.20675e-11	-0.239772	0.467087	-0.200188	
164836	2.13004	2.97911	-0.307507	0.0328479	-0.0183827	6.77023e-11	-0.266659	0.550392	0.080598	
164955	2.12171	2.97561	-0.320997	0.0218297	-0.00888549	9.40448e-11	-0.203767	0.477656	0.174157	
165105	2.12307	2.97275	-0.32445	0.0124049	-0.000497188	2.71179e-11	-0.244874	0.312441	0.180786	
165135	2.12307	2.97275	-0.32445	0.00703026	-0.00722678	1.50183e-11	-0.245407	0.543684	0.0834351	
165435	2.12412	2.99483	-0.344542	-0.00367878	-0.00924013	4.88977e-11	-0.379661	0.391189	0.407481	
165465	2.12412	2.99483	-0.344542	-0.00367878	-0.00924013	4.1563e-10	-0.379661	0.391189	0.407481	
165525	2.12717	2.99495	-0.343732	-0.000478162	-0.00525205	3.79472e-11	-0.360401	0.401363	0.158113	
165975	2.04212	2.97961	-0.355239	0.339707	-0.0223164	1.89628e-11	-0.195747	0.554836	0.210697	
166036	2.02202	2.98415	-0.343542	0.426422	0.00235804	-2.20604e-12	-0.223038	0.562688	-0.0183836	
166065	2.02202	2.98415	-0.343542	0.452373	0.0143459	9.35045e-12	-0.320926	0.745176	0.0346313	
166125	1.97671	2.97788	-0.364242	0.542411	0.0182045	-3.30864e-12	-0.258024	0.727731	-0.027572	
166755	1.26673	3.12912	-0.42775	0.667311	0.348991	-5.19386e-11	-0.381146	1.24284	-0.247327	
166785	1.26673	3.12912	-0.42775	0.752093	0.405312	-8.12161e-12	-0.196296	1.30982	-0.0902401	
166935	0.968149	3.21451	-0.463022	1.26856	0.656642	-7.23635e-12	-0.381828	1.54501	-0.0344588	
167385	0.243482	3.50769	-0.518341	0.695059	0.0622219	-5.78769e-11	-0.445055	1.34709	-0.160769	
167475	0.151856	3.56174	-0.611394	0.663918	0.0824789	-1.23101e-10	-0.559631	1.228	-0.151976	
167596	-0.0170709	3.61385	-0.648123	0.565298	0.117929	3.49851e-11	-0.367788	1.03546	0.129574	
167655	-0.0274778	3.61831	-0.652331	0.628641	0.0407341	1.64899e-10	-0.321771	0.934708	0.392617	
167775	-0.171649	3.65503	-0.688815	0.576111	0.0263267	1.90347e-10	-0.249874	0.861712	0.352495	
167805	-0.171649	3.65503	-0.688815	0.56027	0.0319712	6.65571e-11	-0.292669	0.792706	0.369762	
167895	-0.320343	3.70202	-0.711745	0.476041	0.0307202	5.26997e-11	-0.312211	0.913269	0.0650614	
168105	-0.571593	3.73889	-0.75458	0.395258	0.0358611	-5.34148e-11	-0.163067	0.83029	-0.1187	
168195	-0.619904	3.75742	-0.762528	0.336588	0.038379	-7.19297e-11	-0.351826	0.642287	-0.184435	
168435	-0.68108	3.73351	-0.73987	0.201905	0.0103623	1.68428e-12	-0.222112	0.681148	0.00350891	
168585	-0.727875	3.74673	-0.750899	0.107109	0.00678838	5.41165e-11	-0.313978	0.460142	0.300647	
168645	-0.756961	3.71916	-0.733686	0.0767455	-0.00112915	6.27468e-11	-0.159168	0.484821	0.348593	
168825	-0.748838	3.73456	-0.767473	0.0245143	-0.00210791	1.72109e-10	-0.149222	0.628181	0.301946	
169005	-0.739669	3.71657	-0.747715	-0.0152282	0.0153793	2.2192e-11	-0.195472	0.488756	0.184933	
169096	-0.769961	3.72415	-0.754202	-0.0386503	0.0240857	1.89313e-11	-0.140203	0.524676	0.0901489	
169395	-0.742041	3.72209	-0.745632	-0.115298	0.01175	9.71847e-11	-0.078059	0.45125	0.202468	
169665	-0.655903	3.51471	-0.64304	-0.209573	0.010066	4.9185e-12	-0.186028	0.315559	0.03279	
169725	-0.638904	3.51246	-0.642332	-0.227373	0.0116678	7.50453e-12	-0.175588	0.361522	0.0208459	
170055	-0.568889	3.67961	-0.676529	-0.361976	-0.0119953	1.01741e-10	-0.256989	0.379675	0.135655	
170085	-0.568889	3.67961	-0.676529	-0.373536	-0.0138443	8.25116e-11	-0.195258	0.392545	0.119582	
170326	-0.389179	3.67142	-0.625079	-0.417992	-0.0151287	1.14635e-11	-0.130639	0.195762	0.0477647	
170415	-0.374987	3.68546	-0.62515	-0.458158	0.000216235	1.99252e-11	-0.271518	0.0528648	0.0664174	
170685	-0.308238	3.68148	-0.614191	-0.501952	0.00660071	-3.42194e-11	-0.285975	0.171692	-0.126738	
170716	-0.308238	3.68148	-0.614191	-0.5023	-0.000244892	-2.21736e-11	-0.175067	0.18065	-0.0615934	
170745	-0.308238	3.68148	-0.614191	-0.529773	9.29485e-05	-4.9794e-11	-0.32151	0.0766599	-0.0754455	
170805	-0.160821	3.68318	-0.57281	-0.547581	-0.00987142	-2.99452e-11	-0.307375	0.163144	-0.0665448	
170835	-0.160821	3.68318	-0.57281	-0.526924	-0.017072	-9.03306e-11	-0.282914	0.102312	-0.273729	
170865	-0.160821	3.68318	-0.57281	-0.539545	-0.0167178	-5.02409e-11	-0.26786	0.135065	-0.152245	
170896	-0.160821	3.68318	-0.57281	-0.541401	-0.0204801	-1.20918e-11	-0.403322	0.0742193	-0.0806121	
171105	0.141857	3.67339	-0.513793	-0.495203	-0.0543463	3.16807e-11	-0.187078	0.0479502	0.0754303	
171136	0.141857	3.67339	-0.513793	-0.51508	-0.0455669	6.31558e-11	-0.0565377	0.0763885	0.161938	
171165	0.141857	3.67339	-0.513793	-0.494239	-0.0688381	6.31937e-11	-0.163332	0.14622	0.162035	
171195	0.141857	3.67339	-0.513793	-0.496996	-0.0674875	1.26212e-11	-0.245839	0.0190785	0.0841414	
171256	0.241542	3.66628	-0.495034	-0.438576	-0.102142	5.96619e-12	-0.190515	0.223409	0.0331455	
171285	0.241542	3.66628	-0.495034	-0.484378	-0.0992159	1.64221e-11	0.0111459	0.14522	0.109481	
171405	0.355954	3.65201	-0.471686	-0.463145	-0.173648	1.97726e-11	-0.117808	0.110267	0.0732317	
171435	0.355954	3.65201	-0.471686	-0.497752	-0.170069	-5.31696e-11	-0.206706	0.0902908	-0.118155	
171465	0.355954	3.65201	-0.471686	-0.605178	-0.211866	1.44417e-10	-0.49859	-1.04904	0.343849	
171495	0.355954	3.65201	-0.471686	-0.654027	-0.435769	9.64117e-11	-2.9319	-8.3776	0.535621	
172276	1.01257	3.87099	-1.25027	0.205302	-0.472948	1.94888e-10	0.118511	0.615887	0.928038	
172755	0.425477	3.37331	-0.482105	0.0530203	-0.653191	-3.36708e-10	0.320132	0.577492	-1.12236	
172815	0.175875	3.07098	-0.333635	0.0153413	-0.612512	-7.17506e-10	0.556094	0.602993	-1.25878	
172875	0.151728	3.03338	-0.339577	-0.00397514	-0.641084	-1.6424e-10	0.312897	0.68917	-1.09493	
173085	0.0215534	2.69565	-0.154189	-0.131691	-0.522222	-4.28257e-10	0.444516	0.896497	-1.1896	
173115	0.0215534	2.69565	-0.154189	-0.125244	-0.511832	-2.74739e-10	0.395203	1.11848	-1.14475	
173445	-0.195037	2.29507	-0.138749	-0.0580868	-0.487656	-3.30714e-11	0.343218	0.637139	-0.18373	
174375	-0.405608	1.51482	-0.19183	-0.0590494	-0.378492	2.61212e-11	0.0191163	0.45495	0.0580471	
174705	-0.381643	1.33643	-0.178178	-0.181866	-0.214376	-2.58402e-11	-0.00854165	0.319849	-0.0391518	
174855	-0.341207	1.29932	-0.172714	-0.280449	-0.110779	-4.97337e-12	-0.132066	0.16546	-0.00872521	
175215	-0.185608	1.23368	-0.175646	-0.386882	0.0242002	1.47581e-11	-0.259036	0.237836	0.0327959	
175516	-0.0183954	1.2267	-0.17907	-0.430382	0.0787144	-2.27571e-12	-0.327907	0.173344	-0.0126428	
175636	0.0693585	1.24646	-0.172066	-0.448782	0.102033	8.1068e-11	-0.403099	0.198573	0.207867	
175755	0.132947	1.25224	-0.169888	-0.44876	0.133511	5.04467e-11	-0.381077	0.148617	0.105097	
175785	0.132947	1.25224	-0.169888	-0.44876	0.133511	1.45034e-10	-0.381077	0.148617	0.105097	
176146	0.422545	1.34661	-0.17436	-0.528436	0.220565	4.95476e-11	-0.435508	0.074877	0.18351	
176235	0.500769	1.37436	-0.17469	-0.455724	0.164136	6.39772e-11	-0.599813	0.125711	0.0888572	
176805	0.973699	1.6704	-0.176124	-0.714209	0.607616	3.78186e-11	-0.497986	0.24391	0.0969708	
176955	1.0755	1.73855	-0.173338	-0.706121	0.607267	5.70259e-11	-0.589333	0.208708	0.237608	
177345	1.32453	1.96249	-0.159244	-0.456547	0.53689	-5.00849e-12	-0.610083	0.151791	-0.0208687	
177765	1.51309	2.22356	-0.162588	-0.156176	0.472891	4.45456e-11	-0.625727	0.322966	0.212122	
177885	1.55141	2.30073	-0.162459	-0.108123	0.473222	1.18762e-11	-0.611495	0.375744	0.0395874	
177915	1.55141	2.30073	-0.162459	-0.0865369	0.468015	-4.66825e-12	-0.560553	0.328089	-0.0259347	
179145	1.26315	2.86393	-0.227694	0.525826	0.195708	-6.3599e-12	-0.434986	0.775895	-0.105998	
179445	1.07523	2.95808	-0.254134	0.722923	0.221237	3.46935e-12	-0.301707	0.751146	0.0192742	
179835	0.76641	3.05421	-0.299381	0.808687	0.235615	3.22305e-11	-0.216476	0.98928	0.179058	
180135	0.538249	3.14813	-0.274783	0.58005	0.272987	5.59181e-11	-0.523766	0.720459	0.169449	
180375	0.44138	3.21094	-0.267279	0.271046	0.134215	-2.96131e-12	-0.350745	0.643584	-0.0164517	
180465	0.404603	3.22913	-0.289261	0.161247	0.0707735	3.74994e-11	-0.293555	0.522935	0.0543469	
180495	0.404603	3.22913	-0.289261	0.0639566	0.0376492	-2.57098e-11	-0.352416	0.522025	-0.142832	
180585	0.426436	3.25022	-0.269981	0.00124379	-0.00593671	5.97617e-11	-0.218558	0.472484	0.33201	
180645	0.381069	3.22751	-0.281753	-0.0195624	-0.0183169	6.4037e-11	-0.27328	0.475197	0.194052	
180975	0.346545	3.22459	-0.301666	-0.0459241	-0.0191973	-7.86722e-12	-0.391049	0.347083	-0.0437068	
181245	0.333678	3.21106	-0.307129	-0.0108611	0.00163866	-2.63929e-11	-0.238739	0.424099	-0.0977514	
182026	0.389115	3.18564	-0.258916	-0.125429	-0.131346	-1.13968e-11	-0.13188	0.329571	-0.0379894	
182115	0.38839	3.17237	-0.257535	-0.189708	-0.17806	-1.11291e-11	-0.206562	0.428196	-0.0529957	
182205	0.409763	3.17201	-0.257058	-0.243843	-0.208285	-2.64486e-11	-0.109216	0.354014	-0.125946	
182236	0.409763	3.17201	-0.257058	-0.25818	-0.212588	-1.01025e-10	0.0055447	0.380884	-0.177236	
182265	0.409763	3.17201	-0.257058	-0.292269	-0.231256	-1.70508e-11	-0.240538	0.342133	-0.189453	
182475	0.483761	3.10007	-0.257364	-0.321835	-0.318099	-2.78439e-11	-0.150854	0.341176	-0.0928129	
182746	0.539435	2.98992	-0.275101	-0.343564	-0.365121	8.26e-11	0.0354851	0.317055	0.393333	
182835	0.586729	2.92448	-0.277885	-0.370897	-0.389213	1.19662e-10	-0.0405191	0.28022	0.498593	
183105	0.663653	2.79102	-0.27492	-0.341128	-0.42546	4.76832e-11	0.10709	0.252415	0.264907	
183255	0.719084	2.73452	-0.262678	-0.361341	-0.384151	1.11881e-11	-0.0592468	0.315978	0.0621559	
183285	0.719084	2.73452	-0.262678	-0.391592	-0.411751	-1.66649e-11	0.0149462	0.159696	-0.111099	
183556	0.806629	2.57957	-0.244841	-0.247184	-0.393925	2.06991e-11	0.122092	0.173532	0.137994	
183976	0.850783	2.44079	-0.247337	-0.0164527	-0.0386662	-1.03767e-10	-0.0889045	0.328586	-0.230593	
184095	0.865706	2.44059	-0.238563	0.0133559	0.0163709	-7.10607e-11	-0.204491	0.454171	-0.263188	
184575	0.881492	2.47522	-0.24631	0.0263155	0.045349	9.78769e-11	-0.305704	0.497496	0.326257	
184605	0.881492	2.47522	-0.24631	0.0263155	0.045349	3.91508e-10	-0.305704	0.497496	0.326257	
185565	0.873299	2.50898	-0.235975	0.0225373	0.0839019	-1.82887e-10	-0.304553	0.39034	-0.265054	
186105	0.859181	2.5544	-0.23657	-0.0015283	0.0258596	-1.04054e-11	-0.121706	0.445067	-0.018255	
186496	0.88256	2.58174	-0.243216	-0.0426863	0.00962085	2.05286e-11	-0.111524	0.349378	0.228095	
186705	0.88637	2.58204	-0.246302	-0.0293829	-0.0195292	-8.17392e-12	-0.305056	0.483823	-0.0908213	
186735	0.88637	2.58204	-0.246302	-0.0324974	-0.0269145	6.16571e-12	-0.123223	0.331761	0.102762	
187065	0.915058	2.56882	-0.251747	-0.0116598	-0.0577372	-8.0453e-12	-0.157846	0.656399	-0.038311	
187815	0.899685	2.54025	-0.249165	0.0188403	0.0332886	3.88967e-12	-0.217315	0.309068	0.0185222	
187995	0.911938	2.54119	-0.245475	-0.0448679	0.0516868	4.98323e-12	-0.117309	0.343612	0.0207635	
188055	0.912142	2.53849	-0.241997	-0.0689039	0.0477571	-7.17102e-14	-0.159508	0.447799	-0.000341477	
188205	0.93561	2.55418	-0.248716	-0.135656	0.0421585	6.20957e-12	-0.362017	0.426352	0.103493	
188475	0.995572	2.56722	-0.248722	-0.262855	0.037483	-1.07176e-12	-0.262553	0.46408	-0.0119084	
188895	1.16181	2.55647	-0.236727	-0.445099	-0.0714425	7.94953e-11	-0.193992	0.192982	0.240895	
189015	1.19372	2.55375	-0.231059	-0.510275	-0.127005	8.57071e-11	-0.287902	0.119799	0.28569	
189255	1.36984	2.48044	-0.200648	-0.721197	-0.230204	-2.22909e-11	-0.161828	-0.00989942	-0.123838	
189315	1.41275	2.46206	-0.195537	-0.719328	-0.261754	-1.10771e-11	-0.190156	-0.0449768	-0.0615396	
189945	1.9194	2.2567	-0.124099	-0.723342	-0.31973	-4.60156e-11	-0.309115	0.0914971	-0.219122	
190065	1.98784	2.21492	-0.113199	-0.63395	-0.320701	-8.16069e-11	-0.0304359	0.029521	-0.272023	
190335	2.14449	2.11524	-0.112053	-0.372635	-0.105112	-6.48536e-12	-0.122209	0.0733055	-0.0270223	
190425	2.17572	2.10745	-0.10352	-0.233649	-0.0736829	-5.50067e-11	-0.270467	0.178281	-0.114597	
190785	2.26991	2.08373	-0.0901138	-0.00202719	0.0306424	-2.56964e-11	-0.344353	0.302552	-0.107068	
191085	2.28638	2.08779	-0.0938952	0.0189071	0.00989655	-8.39052e-13	-0.361854	0.411306	-0.0069921	
191115	2.28638	2.08779	-0.0938952	0.0116761	0.0108223	3.25817e-11	-0.277995	0.433805	0.108606	
191175	2.29644	2.09709	-0.0943728	0.0148907	0.00768717	2.96103e-12	-0.317844	0.437841	0.0197402	
191595	2.29454	2.10493	-0.113261	0.00844954	-0.0153296	8.83496e-12	-0.102298	0.407099	0.0736246	
191865	2.27972	2.09667	-0.120613	0.0109842	-0.0238825	1.30667e-11	-0.358826	0.482295	0.145185	
192315	2.22627	2.08349	-0.119474	0.150446	0.0156353	-4.1645e-11	-0.459504	0.525118	-0.0991547	
192735	2.18011	2.08237	-0.13244	0.122148	0.0207583	-1.23607e-11	-0.362187	0.557187	-0.103006	
193065	2.12389	2.09079	-0.134491	0.0573545	0.0288632	4.83406e-12	-0.416707	0.482346	0.0402838	
193516	2.11101	2.09866	-0.138268	-0.0527569	0.0409274	-5.37571e-11	-0.493521	0.331506	-0.127993	
193545	2.11101	2.09866	-0.138268	-0.0635108	0.0340081	-6.49792e-12	-0.337026	0.381151	-0.0721991	
193725	2.13211	2.10965	-0.139276	-0.123697	0.0280439	2.61501e-11	-0.49567	0.376324	0.174334	
193755	2.13211	2.10965	-0.139276	-0.1322	0.0247406	9.6472e-13	-0.359229	0.417266	0.00535956	
193996	2.19056	2.12945	-0.142239	-0.2486	0.03763	-1.12839e-11	-0.384391	0.226008	-0.0470163	
194116	2.23325	2.14061	-0.140658	-0.285247	0.0401142	3.34971e-11	-0.277142	0.181746	0.124063	
194145	2.23325	2.14061	-0.140658	-0.272874	0.0243235	1.36102e-11	-0.448532	0.323913	0.0504083	
194236	2.29287	2.15094	-0.1431	-0.258749	-0.0242721	1.82996e-11	-0.467543	0.201397	0.121997	
194535	2.38342	2.16064	-0.13529	-0.358454	-0.0268587	-5.94907e-12	-0.451382	0.138302	-0.0198302	
195045	2.63319	2.19405	-0.12967	-0.162515	-0.0322436	2.04263e-11	-0.345278	0.312085	0.0425549	
195075	2.63319	2.19405	-0.12967	-0.151925	-0.0135398	9.6726e-12	-0.131633	0.349894	0.0201513	
195105	2.63319	2.19405	-0.12967	-0.130573	-0.00141203	3.16521e-13	-0.291681	0.273991	0.0105507	
195316	2.71072	2.2064	-0.110502	-0.0736612	0.0322051	2.1967e-11	-0.256263	0.250929	0.0813593	
196005	2.77882	2.2536	-0.113066	-0.00799075	0.0351213	7.89809e-12	-0.22425	0.31848	0.0658174	
196095	2.78858	2.25424	-0.115995	-0.0022786	0.0240721	1.13163e-11	-0.275464	0.273453	0.031434	
196335	2.80457	2.28163	-0.123546	-0.0160767	0.00363211	2.11131e-13	-0.353317	0.441667	0.00117295	
196485	2.80652	2.28095	-0.124588	-0.0338356	-0.0237527	2.14085e-11	-0.198316	0.410536	0.118936	
196815	2.79406	2.28409	-0.118198	0.0652687	0.0207552	-3.5606e-11	-0.255396	0.424721	-0.0989057	
196845	2.79406	2.28409	-0.118198	0.0779432	0.0206181	-1.71517e-11	-0.270884	0.476566	-0.0519747	
197295	2.71687	2.32516	-0.124439	0.294083	0.148044	2.86932e-11	-0.365762	0.552221	0.136634	
197325	2.71687	2.32516	-0.124439	0.291795	0.158691	2.47928e-11	-0.333996	0.559509	0.137738	
197355	2.71687	2.32516	-0.124439	0.29648	0.166321	7.677e-12	-0.15197	0.638738	0.063975	
197386	2.71687	2.32516	-0.124439	0.311282	0.174951	1.14893e-11	-0.410441	0.435403	0.0765956	
197745	2.58146	2.43035	-0.136681	0.365917	0.308582	1.57417e-11	-0.340987	0.630156	0.0874539	
197866	2.52725	2.48118	-0.138193	0.377229	0.308877	7.04227e-13	-0.349972	0.587513	0.0117371	
198015	2.48182	2.54319	-0.142168	0.432123	0.237292	-4.26736e-11	-0.471588	0.619308	-0.15805	
198045	2.48182	2.54319	-0.142168	0.457634	0.272134	-1.69852e-11	-0.3332	0.720792	-0.188725	
198255	2.40735	2.68664	-0.154043	0.51664	0.37128	-6.19985e-12	-0.375322	0.644941	-0.103331	
198285	2.40735	2.68664	-0.154043	0.474947	0.40698	-9.85227e-12	-0.593283	0.608698	-0.0656818	
198405	2.34751	2.76006	-0.163297	0.359316	0.43431	-6.90113e-12	-0.66204	0.705088	-0.230038	
198675	2.27659	2.94049	-0.175624	0.150705	0.331297	1.15142e-11	-0.622178	0.75412	0.0348915	
198825	2.24202	3.05434	-0.205201	0.122593	0.351631	2.37644e-11	-0.417967	0.622176	0.0396073	
198855	2.24202	3.05434	-0.205201	0.093825	0.294723	1.06259e-11	-0.532268	0.751639	0.118065	
198945	2.2272	3.12576	-0.204662	0.0385932	0.2797	3.83353e-11	-0.522378	0.539686	0.255568	
199005	2.22243	3.18831	-0.217564	0.0478134	0.286954	7.04826e-11	-0.459813	0.45551	0.213584	
199125	2.2197	3.24103	-0.220229	0.00317225	0.35434	5.08761e-11	-0.464241	0.613005	0.15417	
199425	2.23995	3.36176	-0.227586	-0.015949	0.129255	1.30981e-11	-0.238702	0.56971	0.0873206	
199515	2.23752	3.37027	-0.225016	-0.0207333	0.103611	7.63518e-12	-0.20249	0.573801	0.0509012	
200055	2.23872	3.40301	-0.220666	0.00919605	0.0279566	2.7675e-11	-0.16791	0.424737	0.0369	
200086	2.23872	3.40301	-0.220666	0.00665594	0.0315438	4.48824e-12	-0.191936	0.474885	0.149608	
200115	2.23872	3.40301	-0.220666	0.0139919	0.0303429	3.64546e-11	-0.251957	0.474678	0.110469	
200355	2.2386	3.41058	-0.227707	0.00750713	0.00288009	1.17237e-11	-0.260895	0.489502	0.0488488	
200415	2.24437	3.40903	-0.22624	-0.00219799	-0.00165032	4.22233e-11	-0.231712	0.374753	0.201064	
201075	2.24802	3.40009	-0.218412	0.0163333	-0.0685584	1.03658e-10	-0.161327	0.488059	0.181855	
201135	2.25174	3.39956	-0.219669	0.00850531	-0.0688711	9.57485e-12	-0.229736	0.416275	0.0638323	
201285	2.24334	3.38261	-0.21879	0.00868876	-0.0705023	3.08575e-12	-0.232638	0.520432	0.0514292	
201375	2.24343	3.37555	-0.218638	0.00208577	-0.0602366	4.47907e-12	-0.264822	0.434287	0.0165891	
201615	2.23879	3.36009	-0.213339	0.00631675	-0.0561836	-1.64944e-11	-0.237085	0.472678	-0.0549814	
202485	2.22095	3.32225	-0.200463	0.0207778	-0.0181348	1.55707e-11	-0.288864	0.318821	0.173007	
202546	2.23297	3.3374	-0.199638	0.0101488	-0.0156109	1.2159e-11	-0.177538	0.419473	0.101325	
202576	2.23297	3.3374	-0.199638	0.0148405	-0.0156459	-9.7307e-12	-0.107397	0.512686	-0.0810892	
202876	2.21645	3.32875	-0.206564	0.0299267	0.00164143	-3.82696e-11	-0.216558	0.321915	-0.127565	
203055	2.19984	3.32354	-0.219453	0.0314384	0.01606	5.39599e-11	-0.271348	0.345805	0.0749443	
203715	2.16881	3.32811	-0.247643	0.0167689	-0.0195273	7.73092e-12	-0.175057	0.454563	0.0858991	
203925	2.15518	3.31857	-0.245641	0.00888362	-0.0241833	2.91832e-12	-0.210705	0.336563	0.0324257	
204466	2.14025	3.30317	-0.24617	0.00925223	-0.0466161	2.71106e-11	-0.123998	0.368436	0.0475624	
204555	2.1363	3.28793	-0.238244	0.00572956	-0.0517805	3.19198e-11	-0.124796	0.290513	0.0591107	
204615	2.1364	3.28875	-0.23446	-0.00751672	-0.0657465	1.11099e-11	-0.236024	0.413646	0.0529044	
204975	2.16127	3.26563	-0.227588	-0.108588	-0.0936076	-2.3542e-11	-0.240599	0.399605	-0.0713395	
205755	2.34459	3.17551	-0.203335	-0.424997	-0.0936411	-8.0049e-11	-0.164218	0.242151	-0.381186	
206175	2.58468	3.12013	-0.19481	-0.575286	-0.0628957	9.55195e-13	-0.255809	0.140714	0.00454855	
206265	2.67016	3.11525	-0.197827	-0.548777	-0.120386	7.23984e-11	-0.23884	0.0771003	0.15083	
206445	2.78138	3.09968	-0.205341	-0.584202	-0.0294789	8.35378e-11	-0.262312	0.0787496	0.198899	
206505	2.80079	3.09657	-0.208066	-0.5731	-0.0233132	1.5225e-10	-0.295557	0.151839	0.317187	
206565	2.84878	3.10243	-0.207256	-0.567636	0.00260518	6.50721e-11	-0.288204	0.0986614	0.361512	
206656	2.90368	3.10033	-0.20054	-0.51202	-3.29602e-05	1.03203e-10	-0.412941	0.137249	0.163814	
206685	2.90368	3.10033	-0.20054	-0.513669	0.00885899	2.93511e-11	-0.392911	0.155931	0.244593	
206866	3.00731	3.10445	-0.189136	-0.415172	0.0279398	3.32028e-12	-0.268114	0.250914	0.027669	
207225	3.1966	3.12277	-0.160549	-0.274276	0.101538	-4.64992e-11	-0.335723	0.190036	-0.110712	
207255	3.1966	3.12277	-0.160549	-0.256657	0.117815	-1.17939e-11	-0.40968	0.406805	-0.0982823	
208696	3.4368	3.27014	-0.150316	0.00743439	-0.0124377	2.36878e-11	-0.180169	0.348597	0.157919	
209056	3.44486	3.26885	-0.144599	0.0159233	-0.0348187	-2.00094e-11	-0.399935	0.260232	-0.0317609	
209115	3.45729	3.26512	-0.143754	0.0171568	-0.0535172	-4.26367e-12	-0.172882	0.461449	-0.0142122	
209176	3.44693	3.25883	-0.143802	0.0197802	-0.0504137	4.37413e-11	-0.349183	0.475404	0.112157	
209205	3.44693	3.25883	-0.143802	0.0142369	-0.0538426	1.28383e-11	-0.127687	0.345922	0.0713238	
209385	3.43596	3.24915	-0.146135	0.0210556	-0.0465241	-3.07024e-11	-0.206301	0.485625	-0.0682276	
209415	3.43596	3.24915	-0.146135	0.0362779	-0.0504637	1.36482e-11	-0.249956	0.336013	0.0568677	
209535	3.43984	3.24181	-0.147076	0.0260149	-0.0490799	-1.93671e-11	-0.195075	0.430698	-0.0717301	
209565	3.43984	3.24181	-0.147076	0.0284407	-0.0544374	1.35271e-11	-0.36133	0.475842	0.0901804	
209955	3.42155	3.21926	-0.154583	0.0308047	-0.0279085	2.93632e-11	-0.259142	0.245076	0.244694	
210255	3.40573	3.20242	-0.152897	0.0363648	-0.00567609	1.68542e-11	-0.234982	0.461846	0.112361	
210615	3.36948	3.19779	-0.150026	0.0483807	0.0274501	7.88729e-12	-0.365011	0.488668	0.0328637	
211035	3.34077	3.2019	-0.150882	0.0361552	0.0332913	-4.72214e-11	-0.271317	0.477756	-0.131171	
211456	3.30041	3.20782	-0.14017	0.099108	-0.023374	-3.32327e-12	-0.281641	0.520388	-0.0221551	
211575	3.29524	3.20303	-0.138129	0.0548072	-0.0608383	8.69268e-11	-0.140613	0.438603	0.137979	
211636	3.2952	3.2006	-0.139099	0.0784945	-0.0873422	-5.19491e-11	-0.310043	0.512474	-0.108227	
211815	3.28015	3.17856	-0.138044	0.0145088	-0.159059	5.73007e-12	-0.158061	0.447481	0.0636674	
212145	3.26265	3.11407	-0.132774	-0.0675848	-0.283017	-9.27739e-12	-0.0987416	0.367199	-0.0441781	
212176	3.26265	3.11407	-0.132774	-0.0790094	-0.288484	-2.9214e-11	-0.100593	0.375421	-0.19476	
212865	3.34267	2.81664	-0.121216	-0.287168	-0.467332	1.02737e-10	0.0278108	0.27233	0.285382	
213045	3.39867	2.74897	-0.107276	-0.328405	-0.510805	3.82212e-11	-0.12421	0.173705	0.182006	
213256	3.45771	2.61191	-0.0976088	-0.298648	-0.536205	-4.7481e-11	0.0204596	0.187706	-0.121746	
213315	3.47191	2.59862	-0.086605	-0.298507	-0.505698	-2.8816e-12	-0.0219506	0.209369	-0.0120067	
213345	3.47191	2.59862	-0.086605	-0.253521	-0.44985	-1.0666e-12	0.121197	0.285805	-0.0118511	
213555	3.54044	2.47403	-0.0601591	-0.134065	-0.267842	4.98884e-11	0.039206	0.203365	0.0665179	
213856	3.55279	2.35486	-0.0690434	-0.0806539	-0.10699	9.93997e-12	-0.205443	0.30276	0.0236666	
214095	3.6001	2.31162	-0.0678242	-0.0311223	-0.00443623	-9.0678e-12	-0.302161	0.398264	-0.060452	
215475	3.61657	2.34823	-0.0648066	0.0537578	0.0758371	6.25929e-11	-0.223371	0.239497	0.173869	
215505	3.61657	2.34823	-0.0648066	0.0754075	0.0867216	1.12896e-11	-0.37936	0.428942	0.0376321	
215685	3.56634	2.35456	-0.0679211	0.224116	0.089266	5.72786e-12	-0.376149	0.449863	0.0272755	
215895	3.51336	2.38961	-0.100088	0.382781	0.14165	1.75532e-11	-0.297209	0.652985	0.0365691	
215925	3.51336	2.38961	-0.100088	0.38952	0.143794	-9.82108e-12	-0.310163	0.644056	-0.0409212	
215955	3.51336	2.38961	-0.100088	0.408043	0.155343	1.04532e-11	-0.249161	0.657749	0.0871101	
216255	3.34961	2.43657	-0.0991929	0.670171	0.168785	3.94466e-12	-0.172052	0.678242	0.0219148	
216315	3.29511	2.46235	-0.10753	0.726219	0.154968	3.18591e-12	-0.225311	0.751495	0.0176995	
216345	3.29511	2.46235	-0.10753	0.719746	0.160249	-1.3837e-11	-0.114837	0.674554	-0.0768722	
216375	3.29511	2.46235	-0.10753	0.692479	0.208887	-1.2449e-12	-0.242105	0.708746	-0.00691609	
216555	3.11269	2.52494	-0.144171	0.804445	0.156086	-6.55655e-11	-0.17235	0.891706	-0.104072	
216765	2.96627	2.57359	-0.166875	0.813642	0.0972992	2.17296e-11	-0.22279	0.929241	0.12072	
217035	2.67865	2.58155	-0.207336	0.454917	0.227539	-3.39519e-12	-0.171369	0.923409	-0.0226346	
217155	2.55435	2.56328	-0.196367	0.389122	0.0921871	1.31262e-11	-0.0468806	0.822809	0.0875077	
217455	2.30326	2.49464	-0.198217	0.106218	0.164804	6.03119e-11	-0.015795	0.658841	0.20104	
217725	2.14905	2.41667	-0.218663	0.154823	-0.0251656	7.47605e-11	-0.0504936	0.707598	0.113273	
217785	2.0969	2.38604	-0.233261	1.11502	-1.07989	-0.0906804	-9.79934e+08	-8.64961e+08	-7.19686e+07	
217905	1.97582	2.30638	-0.225058	0.228248	-0.158886	5.34954e-12	0.118923	0.434423	0.0891589	
218145	1.86663	2.21337	-0.222685	0.186405	-0.259636	4.25441e-12	0.00372645	0.454864	0.0157571	
218385	1.77211	2.10992	-0.217446	0.085656	-0.271555	-6.25605e-13	-0.0968934	0.471166	-0.0104268	
218475	1.76381	2.08527	-0.211895	0.0581002	-0.269969	-2.20747e-11	-0.0349516	0.418549	-0.105118	
218595	1.75872	2.06754	-0.211938	0.0144674	-0.271061	2.67746e-11	-0.0409497	0.464658	0.0524992	
219045	1.77918	1.95455	-0.197961	-0.201091	-0.228978	2.15015e-11	-0.148359	0.334908	0.179179	
219256	1.81702	1.89182	-0.191537	-0.318338	-0.211462	4.9636e-11	0.0628668	0.323244	0.206817	
219315	1.82906	1.89139	-0.189734	-0.334752	-0.19947	5.31728e-12	-0.0956803	0.230307	0.0590809	
219345	1.82906	1.89139	-0.189734	-0.333806	-0.210723	2.88783e-11	-0.100999	0.139832	0.106957	
219555	1.92075	1.84619	-0.176194	-0.403336	-0.193448	3.40874e-11	-0.0518245	0.248218	0.142031	
220305	2.33224	1.70796	-0.118522	-0.617618	-0.168377	3.34392e-11	-0.271545	-0.0949067	0.159234	
220635	2.54637	1.65914	-0.112493	-0.679612	-0.0638202	-1.42255e-10	-0.242437	0.0982103	-0.215538	
221175	3.02993	1.60507	-0.0968389	-0.398698	0.0595414	4.38446e-11	-0.326217	-0.185618	0.182686	
221235	3.1	1.59272	-0.117262	-0.450798	0.0779902	1.96632e-11	-0.31382	-0.112391	0.10924	
221295	3.12786	1.59364	-0.112758	-0.402697	0.0672811	2.03437e-11	-0.306528	-0.103357	0.169531	
221566	3.34586	1.62346	-0.0826859	-0.355577	0.136797	1.36671e-11	-0.421689	0.102839	0.0650813	
221955	3.61386	1.74435	-0.0863263	-0.237134	0.331323	4.52994e-11	-0.517899	0.200257	0.188748	
222015	3.61967	1.75707	-0.0895685	-0.215552	0.352928	5.87554e-11	-0.522102	0.355372	0.0890233	
222526	3.64099	1.98869	-0.105053	0.335481	0.375609	8.44046e-12	-0.493557	0.571271	0.0937829	
223756	2.51042	2.59363	-0.170403	0.691714	0.305888	-1.70221e-11	-0.314264	0.975058	-0.0709256	
224295	2.17788	2.65514	-0.24957	0.0435325	-0.104616	2.8327e-12	-0.121026	0.514413	0.0236058	
224325	2.17788	2.65514	-0.24957	0.0378036	-0.110522	-3.33406e-11	0.0548739	0.429065	-0.158765	
224415	2.13178	2.63563	-0.24946	0.0271065	-0.108574	-1.0263e-10	-0.103451	0.33264	-0.1555	
224535	2.12319	2.62702	-0.252065	0.00376205	-0.0886881	4.2949e-12	-0.0585721	0.372142	0.0286326	
225315	2.06297	2.58578	-0.266684	0.0288654	0.0493759	1.93711e-11	-0.259884	0.509592	0.107617	
225586	2.08576	2.60484	-0.25112	-0.055941	-0.0296725	-2.21123e-12	-0.118898	0.167469	-0.0368538	
225645	2.09345	2.6069	-0.251852	-0.0723924	-0.03292	6.55591e-11	-0.191692	0.208042	0.121406	
225765	2.11602	2.61176	-0.254263	-0.25381	1.37013	-0.0914253	5.30283e+08	8.74885e+07	1.29762e+07	
225915	2.13973	2.59994	-0.247606	-0.261225	-0.0575042	2.64717e-11	-0.280794	0.227831	0.147065	
226065	2.17774	2.59555	-0.244063	-0.330819	-0.0705519	2.38531e-12	-0.175631	0.0659844	0.0795104	
226545	2.35847	2.55349	-0.230821	-0.40564	-0.0998414	5.20792e-11	-0.161454	0.112576	0.157816	
227085	2.67622	2.47034	-0.194223	-0.607583	-0.236769	7.19699e-13	-0.210169	-0.00736994	0.00599749	
227295	2.80041	2.43187	-0.17509	-0.669673	-0.312175	5.93139e-12	-0.16572	-0.10438	0.0494283	
227325	2.80041	2.43187	-0.17509	-0.667882	-0.312084	-1.05355e-11	-0.119	0.00666435	-0.0702368	
227535	2.97606	2.37307	-0.156677	-0.61859	-0.332768	-1.44424e-11	-0.17898	-0.0625314	-0.0481413	
227655	3.07702	2.321	-0.156659	-0.469503	-0.279065	-1.81837e-11	-0.198545	0.0892331	-0.121224	
227985	3.24927	2.24664	-0.146797	-0.25369	-0.0321869	-4.03598e-11	-0.19068	0.0428739	-0.134533	
228105	3.28616	2.25707	-0.136231	-0.112482	0.0141978	-5.78524e-12	-0.076827	0.145284	-0.0482103	
228135	3.28616	2.25707	-0.136231	-0.0597903	0.0365487	-6.25802e-12	-0.241495	0.0694113	-0.0521501	
228496	3.3967	2.25507	-0.0923213	0.00428344	0.0578654	1.62012e-11	-0.150827	0.36036	0.0900068	
229065	3.42098	2.29927	-0.10364	0.0133288	0.0206977	6.92126e-11	-0.191797	0.266778	0.256343	
229575	3.43611	2.30511	-0.112228	0.0303358	-0.0163135	9.72414e-12	-0.251188	0.455195	0.0360153	
230206	3.35571	2.32591	-0.10749	0.0605876	0.0400157	7.31797e-12	-0.375782	0.444107	0.0271036	
230445	3.34719	2.32809	-0.122799	-0.02865	0.0325562	1.27658e-11	-0.203887	0.343231	0.106382	
230686	3.36199	2.33402	-0.135975	-0.117064	-0.00848624	2.72574e-10	-0.227797	0.431891	0.313304	
230715	3.36199	2.33402	-0.135975	-0.132407	-0.0143071	3.59849e-11	-0.246217	0.235415	0.399833	
230776	3.38825	2.34684	-0.135494	-0.148929	-0.0168978	1.31403e-10	-0.314945	0.327448	0.336932	
231076	3.45094	2.33066	-0.128342	-0.291685	-0.0707442	5.54472e-11	-0.249518	0.112552	0.23103	
231465	3.59629	2.28974	-0.0869097	-0.345495	-0.100039	-2.30851e-11	-0.205458	0.164334	-0.0961879	
232515	4.02289	2.12464	-0.0148491	-0.0776177	0.0265598	5.42125e-13	-0.188876	0.441882	0.00361416	
232726	4.08778	2.13529	-0.0109332	-0.0135599	0.00799391	1.66909e-12	-0.338954	0.22163	0.00505784	
232906	4.11768	2.12157	-0.0257612	-0.0135555	0.000364015	1.15264e-12	-0.239885	0.509051	0.0128072	
233295	4.1208	2.1145	-0.0320669	-0.00397797	-0.0428022	4.36306e-11	-0.310128	0.430516	0.0969568	
233475	4.12181	2.10423	-0.0366364	0.00691929	-0.0492584	5.14747e-11	-0.277258	0.298638	0.28597	
233775	4.12256	2.09055	-0.042341	0.0376357	-0.0394386	8.8615e-11	-0.192758	0.454686	0.210988	
234225	4.09738	2.09242	-0.0360824	-0.0123766	0.0459524	1.14716e-11	-0.270845	0.466883	0.0318656	
234286	4.0972	2.10081	-0.0379959	-0.0216809	0.0590198	3.95383e-11	-0.253633	0.227459	0.0454463	
235156	4.27818	2.26273	-0.0793851	-0.286218	0.255206	6.5083e-12	-0.391135	0.0551426	0.108472	
236085	4.62383	2.52926	-0.0706015	-0.0318947	0.0503966	2.10106e-11	-0.19481	0.309956	0.140071	
236115	4.62383	2.52926	-0.0706015	-0.0499251	0.0425331	4.6562e-12	-0.303952	0.429995	0.0172452	
236835	4.68738	2.5213	-0.0748835	0.0311667	-0.0487533	9.0745e-11	-0.173909	0.290949	0.232679	
237105	4.68511	2.52323	-0.0791181	0.0433375	-0.051051	1.11584e-11	-0.37665	0.219034	0.0531354	
238276	4.21521	2.57977	-0.122756	0.398213	0.236366	1.04389e-11	-0.256514	0.788894	0.115988	
238455	4.04591	2.68485	-0.142193	0.434174	0.437016	1.07583e-11	-0.276193	0.791048	0.035861	
238485	4.04591	2.68485	-0.142193	0.388787	0.427873	5.19006e-11	-0.538167	0.59358	0.173002	
238515	4.04591	2.68485	-0.142193	0.396562	0.442988	2.08647e-11	-0.442632	0.859989	0.173872	
239115	3.77439	3.18606	-0.18235	0.17664	0.68107	4.25003e-11	-0.590007	0.564899	0.354169	
239146	3.77439	3.18606	-0.18235	0.165956	0.692426	5.09875e-11	-0.566971	0.737919	0.339917	
239505	3.77847	3.44991	-0.173833	-0.0980769	0.495108	-1.54869e-11	-0.556375	0.57114	-0.258115	
240015	3.88857	3.66674	-0.230578	-0.47581	0.325366	-2.46304e-11	-0.435467	0.353734	-0.205254	
240375	4.13319	3.70366	-0.230271	-0.10858	-0.00656243	9.61171e-11	-0.345291	0.287734	0.291264	
241395	4.6898	3.42152	-0.310412	-0.374291	-1.12472	4.63305e-10	0.321151	0.219553	1.28696	
241485	4.75895	3.09656	-0.374448	-0.204431	-1.35897	5.05548e-10	0.2406	0.450561	1.29628	
241515	4.75895	3.09656	-0.374448	-0.14417	-1.43212	3.92829e-10	0.339125	0.255584	1.09119	
241815	4.79731	2.55348	-0.213421	0.0279981	-1.38532	-2.21968e-10	0.562549	0.475036	-0.616577	
242536	4.20324	1.41164	0.0219021	0.309725	-0.671144	-1.93462e-10	0.507266	1.16306	-0.806094	
242565	4.20324	1.41164	0.0219021	0.310759	-0.622905	-1.24949e-10	0.616838	0.966909	-0.694162	
242656	4.13627	1.27077	0.0165814	0.263788	-0.49397	-1.56079e-10	0.47215	0.729228	-0.520262	
242955	3.84923	0.874558	-0.0469814	-0.132295	0.312932	1.88746e-11	0.0123384	0.779321	0.157288	
243585	3.37678	0.545844	-0.166329	0.386386	0.0594937	3.27569e-11	-0.133702	0.607365	0.10919	
243705	3.30627	0.538038	-0.185266	0.361028	0.11993	6.24953e-11	-0.185966	0.585476	0.260397	
243856	3.23921	0.528605	-0.195998	0.353718	0.194689	6.21733e-11	-0.339122	0.652803	0.148032	
243885	3.23921	0.528605	-0.195998	0.34446	0.216023	6.25857e-11	-0.265537	0.533414	0.231799	
244125	3.14184	0.555497	-0.220395	0.237828	0.356829	4.47057e-11	-0.294674	0.62719	0.135472	
245055	3.09387	1.08424	-0.220712	-0.0955807	0.567705	-4.95555e-11	-0.687375	0.118812	-0.150168	
245415	3.19302	1.38373	-0.21134	-0.195484	0.560321	1.47653e-11	-0.582999	0.0310093	0.164059	
245596	3.2504	1.54031	-0.219924	-0.17292	0.471993	3.39136e-12	-0.747611	0.238205	0.0376818	
245775	3.33482	1.70573	-0.231632	-0.280538	0.46444	3.78251e-11	-0.727261	0.101587	0.21014	
245805	3.33482	1.70573	-0.231632	-0.268911	0.446735	3.57911e-11	-0.793638	0.158004	0.298259	
246045	3.47643	1.91776	-0.238907	-0.332288	0.455352	6.04441e-11	-0.689853	0.0298143	0.223867	
246195	3.57881	2.03007	-0.232114	-0.347172	0.363868	9.45386e-12	-0.689548	0.149136	0.0525214	
246525	3.82078	2.25039	-0.226384	-0.393167	0.318629	5.7719e-12	-0.553915	-0.188918	0.0240496	
246645	3.93594	2.34029	-0.225521	-0.51205	0.39772	5.61361e-12	-0.693663	-0.239151	0.02339	
247065	4.26007	2.56473	-0.196412	-0.565511	0.36124	1.55031e-10	-0.437832	-0.15885	0.206708	
247126	4.30492	2.59205	-0.194067	-0.690114	0.470391	2.39089e-11	-0.505584	-0.0252836	0.132827	
247155	4.30492	2.59205	-0.194067	-0.690513	0.464705	6.24212e-11	-0.51211	-0.119342	0.297244	
247215	4.41552	2.66203	-0.17837	-0.845411	0.511716	2.52335e-10	-0.461068	-0.0575848	0.442693	
247305	4.47054	2.69345	-0.177369	-0.849983	0.493242	1.13082e-10	-0.525811	0.122764	0.163886	
247396	4.55464	2.73435	-0.169264	-0.622693	0.258877	1.30477e-10	-0.591831	-0.173551	0.197693	
247546	4.70686	2.82409	-0.152596	-0.516961	0.229961	7.48049e-11	-0.580844	0.0915255	0.24935	
247785	4.81841	2.88839	-0.131994	-0.263818	-0.0934095	-9.86629e-11	-0.278241	0.177097	-0.173093	
248355	4.83276	2.71425	-0.176728	0.45022	-0.847859	-6.88054e-13	0.247203	0.488229	-0.0114676	
248475	4.69682	2.57932	-0.179893	0.525356	-0.818886	4.69131e-11	0.0833645	0.460312	0.173752	
248536	4.6703	2.53964	-0.18361	0.622255	-0.850703	4.04949e-13	0.393299	0.630992	0.00269966	
248566	4.6703	2.53964	-0.18361	0.647712	-0.810019	-4.22403e-14	0.344757	0.712246	-0.000201144	
248596	4.6703	2.53964	-0.18361	0.633208	-0.719116	2.6522e-11	0.55578	0.631306	0.0982297	
248955	4.05124	2.01084	-0.173866	0.758978	-0.165293	-4.1449e-11	0.411265	0.97569	-0.276327	
249105	3.81707	1.9209	-0.190023	0.721835	-0.0199292	-1.37487e-10	0.197788	1.22486	-0.572865	
249345	3.47163	1.74707	-0.170293	0.691374	0.00296687	-8.60314e-11	0.0201924	1.02863	-0.318635	
249405	3.42743	1.72325	-0.178341	0.555669	-0.104729	-6.5102e-12	0.0648752	1.06759	-0.0542516	
249526	3.2759	1.67717	-0.19428	0.552076	-0.13818	6.8676e-11	0.0441121	0.903479	0.254356	
249615	3.0824	1.6253	-0.207907	0.55343	-0.0707704	7.86324e-11	0.153556	1.1098	0.145616	
249705	2.98583	1.60119	-0.224907	0.636928	-0.0779147	1.3526e-10	0.0845426	0.921135	0.322047	
249946	2.66924	1.54469	-0.264595	0.76637	-0.00254458	1.31261e-10	-0.0978255	0.867083	0.312526	
250035	2.54517	1.53855	-0.291322	0.792978	-0.0142606	7.06093e-11	-0.191914	0.695318	0.470729	
250126	2.44041	1.52444	-0.297178	0.783509	-0.0111169	2.26081e-10	-0.120913	0.808944	0.342546	
250485	2.12899	1.50714	-0.326307	0.508905	0.0522035	1.24017e-11	-0.0776621	0.791684	0.0688983	
251145	1.8886	1.57251	-0.334693	0.0302997	0.121384	4.87096e-11	-0.337596	0.399071	0.101478	
251205	1.87615	1.58535	-0.335015	-0.00669918	0.120551	9.30498e-12	-0.150027	0.438884	0.103389	
251415	1.8733	1.60612	-0.334253	-0.0726689	0.132514	-7.83831e-11	-0.168785	0.188427	-0.130638	
251445	1.8733	1.60612	-0.334253	-0.0726689	0.132514	-1.95958e-10	-0.168785	0.188427	-0.130638	
251475	1.8733	1.60612	-0.334253	-0.10096	0.133467	-8.37137e-12	-0.177616	0.349798	-0.0930152	
251535	1.88643	1.62492	-0.331023	-0.143735	0.142076	-7.86813e-12	-0.264488	0.176938	-0.0524542	
252016	2.00617	1.71259	-0.330068	-0.329779	0.135132	1.84389e-11	-0.139066	0.099572	0.0768289	
252375	2.16878	1.78926	-0.315074	-0.336762	0.0782419	-4.77063e-12	-0.272055	0.173014	-0.0159021	
252885	2.45353	1.90605	-0.276609	-0.331616	0.00964274	-2.30751e-11	-0.313737	0.070163	-0.0404826	
253095	2.58369	1.94849	-0.268007	-0.454014	0.052277	5.29765e-11	-0.429711	-0.00382598	0.147157	
254235	3.5232	2.02355	-0.205847	-0.483207	-0.00843109	-2.07599e-11	-0.444503	-0.146746	-0.115333	
254625	3.89548	1.98306	-0.17648	-0.539463	-0.0429662	2.45582e-11	-0.353646	-0.169666	0.0909564	
254835	4.11501	1.97762	-0.166071	-0.736369	-0.132497	9.3652e-11	-0.438734	-0.280888	0.120067	
255135	4.427	1.98714	-0.136575	-0.706339	-0.0203479	4.39664e-11	-0.403602	-0.185997	0.183193	
255375	4.66087	2.03622	-0.117642	-0.578999	0.0559425	-3.58956e-11	-0.469966	-0.0211203	-0.108775	
255436	4.71057	2.07015	-0.126004	-0.543336	0.032817	-1.15215e-11	-0.537924	-0.16718	-0.0768102	
255465	4.71057	2.07015	-0.126004	-0.531847	0.0461993	3.77589e-11	-0.602393	-0.00484627	0.314657	
255765	4.9953	2.1848	-0.136283	-0.283881	0.118496	9.16453e-12	-0.567027	-0.066647	0.101828	
256245	5.17972	2.44293	-0.164228	0.128474	0.488743	3.65367e-11	-0.528852	0.119471	0.243578	
256845	4.9974	2.89884	-0.212212	0.809365	0.742653	4.10364e-11	-0.735518	0.857915	0.34197	
256935	4.85948	2.99968	-0.231904	0.733224	0.763512	4.48136e-12	-0.595984	0.865684	0.149379	
257355	4.30838	3.32872	-0.23001	1.32946	0.524029	-3.11039e-11	-0.584888	1.07699	-0.1152	
258195	3.2492	3.51212	-0.282059	0.407791	-0.138928	3.54349e-11	-0.104955	0.780035	0.590581	
258405	3.10672	3.48382	-0.354628	0.108781	-0.122746	1.42596e-10	0.01128	0.582855	0.528132	
258976	2.9811	3.48921	-0.310872	-0.0543879	0.12583	-1.27136e-10	-0.215656	0.309946	-0.264867	
259095	2.99849	3.50808	-0.29753	-0.0614193	0.134387	-3.40988e-10	-0.236411	0.507786	-0.75775	
259485	3.01436	3.57718	-0.322203	-0.0440432	0.0797252	-1.81213e-10	-0.342989	0.464198	-0.274565	
259905	3.05204	3.57382	-0.364643	-0.0163734	-0.066329	1.22377e-10	-0.118924	0.418274	0.370839	
259965	3.04706	3.57484	-0.365892	-0.023411	-0.0618354	1.49125e-10	-0.0786153	0.402955	0.621355	
260145	3.05367	3.54963	-0.386546	-0.0401723	-0.106975	1.76069e-10	-0.146968	0.345465	0.419211	
260175	3.05367	3.54963	-0.386546	-0.0306713	-0.11866	1.07335e-11	0.00630137	0.297581	0.357784	
260385	3.04622	3.51671	-0.400499	-0.0177363	-0.127891	8.69007e-11	-0.104436	0.360082	0.413813	
260505	3.05521	3.4983	-0.399175	-0.0109501	-0.121186	3.65873e-11	-0.239865	0.412	0.406526	
260565	3.06371	3.49006	-0.397265	-0.0202204	-0.121753	2.2023e-10	-0.107345	0.408856	0.458813	
260956	3.02971	3.4437	-0.376108	0.0459775	-0.0947518	6.35078e-12	-0.184805	0.375689	0.0141128	
261045	3.03681	3.43842	-0.368292	0.06032	-0.0764583	-2.35626e-11	-0.132571	0.398731	-0.196355	
261165	3.03666	3.43439	-0.356755	0.0392817	-0.0470741	-2.16342e-10	-0.173038	0.381897	-0.277362	
261436	3.03875	3.42244	-0.335868	0.0157063	0.0212334	-1.98532e-11	-0.149318	0.486875	-0.220591	
261495	3.04606	3.4271	-0.333815	-0.00169259	0.0230743	-1.64537e-11	-0.142546	0.401344	-0.0548457	
261586	3.03366	3.42493	-0.330635	0.0199798	0.0425572	-4.38962e-11	-0.106533	0.415312	-0.0914505	
261615	3.03366	3.42493	-0.330635	0.027826	0.0483649	3.49865e-11	-0.203241	0.456815	0.0728885	
261795	3.02576	3.43478	-0.330676	0.0265781	0.0531389	2.72656e-11	-0.256884	0.435568	0.151476	
262035	3.02792	3.44362	-0.338414	-0.0155918	0.0262728	4.19556e-11	-0.0943391	0.362631	0.116543	
262095	3.02936	3.44497	-0.338548	-0.0118198	0.0240925	1.39431e-10	-0.0877815	0.493554	0.290482	
262425	3.03608	3.45319	-0.348427	-0.00768009	0.0162876	9.02185e-11	-0.198853	0.400437	0.187955	
262455	3.03608	3.45319	-0.348427	0.00220846	0.0138607	5.65532e-11	-0.193941	0.432101	0.377021	
262515	3.04656	3.45307	-0.350444	-0.0127264	0.0226722	1.00524e-10	-0.294791	0.446889	0.257754	
262665	3.04202	3.4515	-0.349252	-0.0277876	0.0230679	8.31452e-11	-0.332787	0.333887	0.307945	
262816	3.04481	3.45398	-0.348605	0.00230599	0.0162771	3.92957e-11	-0.201505	0.364724	0.261971	
263145	3.04174	3.45784	-0.335679	0.039848	0.0164801	-1.00407e-10	-0.195634	0.56151	-0.304265	
263625	3.03612	3.48299	-0.327174	0.0284922	0.0692751	-4.28216e-11	-0.183026	0.422669	-0.142739	
263745	3.03567	3.49648	-0.329573	0.0187186	0.0814145	3.46826e-10	-0.138851	0.442302	0.462435	
263955	3.02386	3.51203	-0.340951	0.00741896	0.089806	-1.47339e-11	-0.169231	0.531516	-0.16371	
263985	3.02386	3.51203	-0.340951	0.029309	0.0755603	-1.87592e-11	-0.130799	0.448897	-0.0390816	
264226	3.01691	3.53817	-0.360928	-0.0170108	0.0609978	5.22152e-10	-0.106973	0.441891	0.600175	
264286	3.0182	3.54238	-0.362349	-0.0125592	0.0491636	3.25322e-10	-0.33845	0.36311	0.722938	
264375	3.02287	3.54422	-0.363392	-0.0378234	0.0270877	4.3803e-11	-0.155758	0.519891	0.29202	
264406	3.02287	3.54422	-0.363392	-0.0419086	0.0215575	8.01783e-11	-0.30331	0.359676	0.296957	
264495	3.02808	3.5478	-0.362272	-0.0647209	-0.000131405	-1.27275e-11	-0.217226	0.578159	-0.0212125	
265005	3.04849	3.54398	-0.336795	-0.0711231	-0.0388417	-3.43913e-11	-0.101267	0.338482	-0.104216	
265095	3.06894	3.53933	-0.33538	-0.065779	-0.0262793	-1.77872e-11	-0.192909	0.443096	-0.0592908	
265485	3.10392	3.52418	-0.346264	-0.056536	-0.0300722	-2.94875e-11	-0.112135	0.441614	-0.245729	
265576	3.09888	3.51825	-0.345083	-0.0308101	-0.0177016	-1.16214e-11	-0.139851	0.281981	-0.0968451	
265905	3.11454	3.51109	-0.296423	0.0114205	-0.174538	5.5515e-10	-0.134737	0.277407	1.42346	
265936	3.11454	3.51109	-0.296423	0.0234117	-0.20948	1.86536e-10	-0.0154352	0.475813	1.24357	
266205	3.08469	3.50852	-0.118237	0.0776559	-0.309532	1.46091e-10	-0.0489216	0.438192	0.374593	
266355	3.0277	3.50709	0.0114201	0.0350239	-0.10346	-9.10361e-11	-0.200235	0.367294	-0.758634	
266565	2.99266	3.5306	0.175455	0.047342	-0.0764768	4.21778e-11	-0.262083	0.402732	0.117161	
266805	2.88768	3.53496	0.340612	0.0240496	0.0858657	4.96089e-11	-2.15663	-0.0292221	0.413408	
266925	2.88388	3.58453	0.448682	0.0377649	0.154097	1.5846e-09	-0.294092	0.519722	6.60252	
269895	3.0768	3.40589	-0.383816	0.00192295	0.00779869	4.04073e-11	-0.2753	0.523886	0.103609	
