MS	x	y	z	vx	vy	vz	ax	ay	az	
7305	-0.102295	-0.071414	-0.912722	0	0	0	-94265.3	-112020	83359.5	
7336	-0.102481	-0.0662907	-0.914047	-4.52474e-05	-5.37698e-05	4.00126e-05	-9966.78	274518	-70946.4	
7365	-0.102481	-0.0662907	-0.914047	-5.87025e-05	0.00031683	-5.57651e-05	-9966.78	274518	-70946.4	
7395	-0.102472	-0.065695	-0.913923	-6.28886e-05	0.000432128	-8.55625e-05	-1810.7	-10430.1	-1862.07	
7426	-0.102472	-0.065695	-0.913923	-6.5333e-05	0.000418047	-8.80763e-05	-1810.7	-10430.1	-1862.07	
7455	-0.101745	-0.064561	-0.913933	-6.64737e-05	0.000411476	-8.92494e-05	40133.6	62665.4	-591.893	
7486	-0.101745	-0.064561	-0.913933	-3.8654e-06	0.000509234	-9.01728e-05	40133.6	62665.4	-591.893	
7545	-0.108744	-0.0792667	-0.902653	-0.0071654	-0.00114733	1.75745e-10	-74818	-35226.8	29930.9	
7575	-0.114153	-0.0870089	-0.898318	-0.00720804	-0.00116741	1.70608e-05	-308828	-442026	247516	
7605	-0.113596	-0.0860323	-0.898925	-0.00745819	-0.00152545	0.000217549	32020.5	56082.1	-34827.6	
7665	-0.115424	-0.0872511	-0.900171	-0.00635322	-0.00101728	1.13855e-10	-102045	-70467.7	-25715.9	
7695	-0.11314	-0.0822916	-0.901797	-0.00638996	-0.00104265	-9.25762e-06	134800	292751	-95963.6	
7725	-0.113454	-0.0816031	-0.90146	-0.00632121	-0.000893349	-5.81991e-05	-18650	40903.5	19986.2	
7755	-0.111032	-0.0793389	-0.902663	-0.00633128	-0.000871261	-4.74065e-05	144960	135539	-71967.8	
7785	-0.112565	-0.0828501	-0.900158	-0.00627475	-0.000818401	-7.54739e-05	-92572.8	-212088	151277	
7816	-0.112565	-0.0828501	-0.900158	-0.00639695	-0.00109836	0.000124212	-92572.8	-212088	151277	
7845	-0.112271	-0.0814929	-0.900384	-0.00646082	-0.0012447	0.000228593	17992	83033.1	-13795.3	
7876	-0.113178	-0.082205	-0.899578	-0.00644679	-0.00117993	0.000217832	-55938.4	-43875.7	49625.5	
7905	-0.112606	-0.0824886	-0.899454	-0.00648035	-0.00120626	0.000247608	35559.9	-17632.6	7701.14	
7936	-0.112772	-0.0822828	-0.900191	-0.00645155	-0.00122054	0.000253846	-10374	12868.5	-46074.9	
7965	-0.11385	-0.0833836	-0.898526	-0.00645248	-0.00121938	0.000249699	-68342.2	-69780.9	105563	
7996	-0.106544	-0.0737232	-0.905554	-0.00648528	-0.00125288	0.000300369	465265	615180	-447560	
8025	-0.10717	-0.0753034	-0.904951	-0.006248	-0.000939135	7.21134e-05	-40162.8	-101339	38659.3	
8055	-0.106726	-0.0757669	-0.904319	-0.00626246	-0.000975617	8.60308e-05	28731.1	-29980.8	40931.9	
8115	-0.106786	-0.0780652	-0.902609	-0.00406676	-0.000651172	9.24959e-11	-125201	-267652	184808	
8146	-0.106786	-0.0780652	-0.902609	-0.00422452	-0.000988413	0.000232859	-125201	-267652	184808	
8175	-0.104695	-0.0775007	-0.903664	-0.00432968	-0.00121324	0.000388098	138784	37463.1	-69974.9	
8205	-0.105207	-0.0747918	-0.904669	-0.00426723	-0.00119638	0.000356609	-34353.5	181704	-67442.1	
8235	-0.105976	-0.0756229	-0.905033	-0.00429712	-0.0010383	0.000297934	-51732.6	-55964.6	-24508.6	
8265	-0.102115	-0.075885	-0.90249	-0.00433902	-0.00108363	0.000278082	262019	-17788.7	172553	
8325	-0.1013	-0.0738306	-0.904152	-0.00329471	-0.000527551	3.66087e-10	27945.3	96116.8	-81158.6	
8356	-0.101597	-0.0744003	-0.904061	-0.00327208	-0.000449696	-6.57381e-05	-20603.5	-39522.3	6279.89	
8385	-0.101495	-0.0742042	-0.903411	-0.00327579	-0.00045681	-6.46077e-05	7192.46	13767	45652.5	
8415	-0.103048	-0.0755096	-0.903562	-0.00327233	-0.000450202	-4.26945e-05	-109546	-92086.3	-10610.3	
8446	-0.103048	-0.0755096	-0.903562	-0.00342679	-0.000580043	-5.7655e-05	-109546	-92086.3	-10610.3	
8475	-0.104428	-0.079396	-0.901431	-0.00345637	-0.000604907	-6.05198e-05	-98971.5	-278548	152686	
8505	-0.108561	-0.0828253	-0.901228	-0.00348309	-0.000680115	-1.92946e-05	45099.4	140893	-11797.9	
8535	-0.107803	-0.082332	-0.901092	-0.0034655	-0.000625167	-2.38958e-05	55062.3	35832.3	9868.21	
8565	-0.107803	-0.082332	-0.901092	-0.00339447	-0.000578943	-1.11658e-05	55062.3	35832.3	9868.21	
8625	-0.107229	-0.0773795	-0.904935	-0.00242676	-0.000388572	2.93886e-10	-82920.5	165696	-183988	
8655	-0.105045	-0.0775318	-0.903218	-0.00249144	-0.000259329	-0.00014351	162592	-11336.3	127839	
8686	-0.108018	-0.0796563	-0.902789	-0.0023695	-0.000267831	-4.76309e-05	-222986	-159367	32178.1	
8715	-0.105818	-0.0800124	-0.902377	-0.00240963	-0.000296518	-4.18388e-05	166862	-27008.8	31271.3	
8745	-0.107405	-0.0822205	-0.901208	-0.00234956	-0.000306241	-3.05811e-05	-121014	-168403	89175.1	
8775	-0.104629	-0.0774352	-0.90358	-0.00236772	-0.000331501	-1.72049e-05	213468	368057	-182422	
8805	-0.104357	-0.0772917	-0.903529	-0.00230367	-0.000221084	-7.19315e-05	21045.5	11094.1	3940.57	
8835	-0.107584	-0.0822719	-0.900895	-0.00229673	-0.000217423	-7.06311e-05	-251261	-387767	205030	
8866	-0.105672	-0.0802695	-0.901582	-0.00237965	-0.000345386	-2.97102e-06	149917	157007	-53812.8	
8895	-0.108334	-0.0837746	-0.900705	-0.00234816	-0.000312415	-1.42717e-05	-210304	-276894	69289.4	
8925	-0.108334	-0.0837746	-0.900705	-0.0025816	-0.000619767	6.26395e-05	-210304	-276894	69289.4	
8955	-0.107502	-0.083547	-0.902637	-0.00261946	-0.000669608	7.51116e-05	66677.7	18234.1	-154785	
8986	-0.104754	-0.0784839	-0.905246	-0.00257545	-0.000657573	-2.70467e-05	220759	406830	-209590	
9015	-0.105369	-0.080226	-0.903823	-0.00247611	-0.0004745	-0.000121362	-49758.3	-141105	115268	
9045	-0.106083	-0.0805011	-0.903116	-0.0025179	-0.000593028	-2.45371e-05	-58077.2	-22370.8	57488.4	
9076	-0.10543	-0.0791015	-0.903362	-0.00255275	-0.00060645	9.95592e-06	53548.2	114783	-20209.8	
9105	-0.106425	-0.0828836	-0.900552	-0.00253347	-0.000565129	2.68038e-06	-82245.3	-312713	232322	
9136	-0.10749	-0.0804919	-0.90093	-0.00255074	-0.000630798	5.14679e-05	-88756.8	199322	-31496.2	
9165	-0.102494	-0.0724134	-0.905499	-0.00258003	-0.000565022	4.10742e-05	418613	676944	-382814	
9196	-0.103665	-0.0762956	-0.904104	-0.00244189	-0.00034163	-8.52544e-05	-98807.1	-327515	117620	
9225	-0.106668	-0.0814024	-0.902233	-0.00247746	-0.000459536	-4.29112e-05	-254891	-433465	158875	
9255	-0.105923	-0.0791003	-0.903299	-0.00252334	-0.00053756	-1.43138e-05	63787	196931	-91221.1	
9285	-0.106637	-0.0779036	-0.904118	-0.00250038	-0.000466664	-4.71534e-05	-61404.7	102904	-70409	
9315	-0.106637	-0.0779036	-0.904118	-0.00257775	-0.000337006	-0.000135869	-61404.7	102904	-70409	
9345	-0.104227	-0.0779124	-0.904798	-0.00262933	-0.000250567	-0.000195012	209150	-770.552	-59032.9	
9375	-0.104376	-0.079062	-0.903668	-0.00250384	-0.000251029	-0.000230432	-13000.2	-100603	98858.2	
9406	-0.101363	-0.0753927	-0.904091	-0.00251554	-0.000341572	-0.00014146	264881	322562	-37161.7	
9435	-0.101363	-0.0753927	-0.904091	-0.0020467	0.000229362	-0.000207236	264881	322562	-37161.7	
9465	-0.102792	-0.0764801	-0.90386	-0.00202286	0.000258393	-0.00021058	170518	263709	-49628.2	
9495	-0.102014	-0.0757481	-0.90426	-0.00193078	0.000400796	-0.00023738	69817.7	65739	-35909	
9525	-0.104575	-0.0717282	-0.904112	-0.00191193	0.000418546	-0.000247075	-231904	364024	13375.6	
9555	-0.104391	-0.0701139	-0.905803	-0.00199542	0.000549594	-0.00024226	16783.7	147010	-154032	
9585	-0.103918	-0.0702119	-0.893766	-0.00199239	0.000576056	-0.000269986	43380.5	-8987.79	1.10448e+06	
9616	-0.103133	-0.0694918	-0.893403	-0.00198068	0.000573629	2.82238e-05	72451.2	66456.8	33505.6	
9645	-0.104757	-0.0696197	-0.893594	-0.00195677	0.00059556	3.92807e-05	-150706	-11867.6	-17737.4	
9676	-0.105884	-0.0715237	-0.893189	-0.00198842	0.000593068	3.55558e-05	-105344	-178012	37935.9	
9705	-0.105884	-0.0715237	-0.893189	-0.00210219	0.000400815	7.65266e-05	-105344	-178012	37935.9	
9735	-0.102694	-0.0747066	-0.891816	-0.00215908	0.000304688	9.70121e-05	301205	-300527	129599	
9765	-0.102218	-0.0743819	-0.892753	-0.00193317	7.92929e-05	0.000194212	45170.1	30802.9	-88917.8	
9795	-0.10123	-0.0731485	-0.892659	-0.00189794	0.000103319	0.000124856	94209.8	117712	9012.36	
9825	-0.101845	-0.07479	-0.892007	-0.00184142	0.000173946	0.000130263	-59101.3	-157815	62630.1	
9855	-0.104454	-0.0750648	-0.892176	-0.00188929	4.61166e-05	0.000180994	-252028	-26538.2	-16273.1	
9915	-0.100458	-0.0722495	-0.892782	-0.000672568	-0.000107691	3.11084e-10	390295	274925	-59224.9	
10005	-0.104414	-0.0752125	-0.893355	-0.000614543	-9.84001e-05	6.70555e-11	105811	289150	-159228	
10035	-0.101658	-0.0732368	-0.893515	-0.000585974	-2.03296e-05	-4.29916e-05	277068	198597	-16139.6	
10065	-0.101658	-0.0732368	-0.893515	-0.000261805	0.000212029	-6.18749e-05	277068	198597	-16139.6	
10095	-0.104848	-0.0758112	-0.892069	-7.06275e-05	0.000349061	-7.30112e-05	-323667	-261157	146668	
10125	-0.10291	-0.0748296	-0.892268	-0.000187148	0.000255045	-2.02108e-05	198192	100388	-20307.1	
10155	-0.101441	-0.0721742	-0.89451	-3.85038e-05	0.000330335	-3.54411e-05	150740	272488	-230064	
10186	-0.101779	-0.0733564	-0.893603	6.09849e-05	0.000510177	-0.000187283	-34851.6	-122124	93720.2	
10215	-0.104089	-0.0762988	-0.89204	3.38006e-05	0.000414921	-0.000114182	-239843	-305468	162200	
10245	-0.104634	-0.0763187	-0.892454	-0.000131691	0.000204148	-2.26356e-06	-56948.9	-2081.89	-43177.9	
10276	-0.104634	-0.0763187	-0.892454	-0.000223948	0.000200775	-7.22117e-05	-56948.9	-2081.89	-43177.9	
10305	-0.104669	-0.0758963	-0.89215	-0.000234199	0.0002004	-7.99838e-05	85636.6	185469	-90032.5	
10336	-0.105967	-0.0791508	-0.890843	-0.000198232	0.000278297	-0.000117797	-138319	-346748	139255	
10365	-0.10571	-0.0799263	-0.890837	-0.000243877	0.00016387	-7.18434e-05	27629	-83132.8	698.899	
10395	-0.10571	-0.0799263	-0.890837	-0.000209893	6.16169e-05	-7.09838e-05	27629	-83132.8	698.899	
10425	-0.10571	-0.0799263	-0.890837	-0.000151044	-0.000115456	-6.94951e-05	27629	-83132.8	698.899	
10456	-0.108627	-0.071775	-0.889741	-0.00014607	-0.00013042	-6.93693e-05	-82596.1	5438.79	362084	
10485	-0.106515	-0.0723407	-0.88983	-0.000195628	-0.000127157	0.000147881	231358	-61955.5	-9760.92	
10516	-0.109914	-0.0749811	-0.892757	-8.22828e-06	-0.000177341	0.000139975	-373996	-290491	-322001	
10576	-0.108551	-0.075042	-0.891685	-0.000343581	-5.50139e-05	2.08277e-10	255448	345866	-65947.2	
10605	-0.107289	-0.0792848	-0.890842	-0.000144332	0.000214761	-5.14386e-05	141195	-474841	94337.8	
10635	-0.103653	-0.0748865	-0.892044	-5.53787e-05	-8.4389e-05	7.99423e-06	409604	495501	-135431	
10665	-0.104567	-0.07615	-0.891947	6.75024e-05	6.42614e-05	-3.2635e-05	-103713	-143442	11070.2	
10695	-0.104567	-0.07615	-0.891947	-5.69528e-05	-0.000107868	-1.93508e-05	-103713	-143442	11070.2	
10725	-0.107631	-0.0717312	-0.893053	-0.000131626	-0.000211146	-1.13803e-05	-350965	505999	-126718	
10756	-0.106745	-0.0772191	-0.889811	-0.000215857	-8.97066e-05	-4.17926e-05	20516.6	236507	-6444.4	
10785	-0.107152	-0.0773014	-0.891392	-0.000210318	-2.58497e-05	-4.35326e-05	-47322.5	-9565.62	-183602	
10815	-0.107152	-0.0773014	-0.891392	-0.000265685	-3.70415e-05	-0.000258346	-47322.5	-9565.62	-183602	
10845	-0.105132	-0.0742208	-0.89234	-0.000296918	-4.33548e-05	-0.000379523	236708	360853	-110991	
10875	-0.105661	-0.075698	-0.891592	-0.000112286	0.00023811	-0.000466096	-62280.5	-173857	87989.9	
10905	-0.105661	-0.075698	-0.891592	-0.000216917	-5.39702e-05	-0.000318273	-62280.5	-173857	87989.9	
10935	-0.107666	-0.0741443	-0.892594	-0.000269233	-0.00020001	-0.000244362	-238505	184833	-119135	
10965	-0.106897	-0.0743836	-0.891662	-0.000347939	-0.000139016	-0.000283676	-96916.2	-101814	-48421.1	
10995	-0.105582	-0.0739438	-0.891902	-0.000417719	-0.000212322	-0.00031854	158282	52937.6	-28909.7	
11026	-0.105582	-0.0739438	-0.891902	-0.000156554	-0.000124975	-0.000366241	158282	52937.6	-28909.7	
11055	-0.10653	-0.0746741	-0.894009	-2.35973e-05	-8.05072e-05	-0.000390525	-115321	-88802.3	-256260	
11115	-0.106009	-0.0726831	-0.894848	-0.000201965	-3.23383e-05	1.34965e-10	-99685.5	-104504	20880	
11145	-0.106009	-0.0726831	-0.894848	-0.000321588	-0.000157742	2.50562e-05	-99685.5	-104504	20880	
11176	-0.104795	-0.0710976	-0.894673	-0.000357474	-0.000195364	3.2573e-05	101137	180314	16537.8	
11205	-0.105548	-0.0731653	-0.893749	-0.000324099	-0.00013586	3.80304e-05	-94353.4	-259091	115836	
11236	-0.105548	-0.0731653	-0.893749	-0.000442984	-0.000462315	0.000183984	-94353.4	-259091	115836	
11265	-0.104898	-0.0718079	-0.894291	-0.000482613	-0.000571134	0.000232636	82233.7	171828	-68565.7	
11296	-0.103493	-0.0781268	-0.893455	-0.000416003	-0.000431953	0.000177097	178461	-802440	106040	
11325	-0.103575	-0.0695959	-0.894935	-0.000287512	-0.00100971	0.000253446	-10478.8	1.0895e+06	-188927	
11356	-0.10438	-0.0707187	-0.895189	-0.000295057	-0.000225269	0.000117419	-103382	-144177	-32625.5	
11385	-0.103302	-0.0802484	-0.892341	-0.00030126	-0.00023392	0.000115461	139753	-1.23479e+06	368973	
11416	-0.106137	-0.0778877	-0.89103	-0.000280297	-0.000419139	0.000170807	-369259	307380	170697	
11445	-0.107033	-0.0773304	-0.891588	-0.000346763	-0.00036381	0.000201533	-117226	72922	-72947.9	
11476	-0.107033	-0.0773304	-0.891588	-0.000476884	-0.000282867	0.000120561	-117226	72922	-72947.9	
11505	-0.104501	-0.08354	-0.89033	-0.000501501	-0.000267553	0.000105241	377084	-576532	94756.7	
11565	-0.103486	-0.081758	-0.890922	-0.000129279	-2.06995e-05	2.66079e-10	134888	236782	-78640.9	
11595	-0.103794	-0.0819939	-0.891679	-2.40666e-05	0.00016399	-6.13396e-05	-41260.7	-31576.9	-101378	
11626	-0.106875	-0.0834402	-0.890828	-3.89205e-05	0.000152623	-9.78356e-05	-415562	-195092	114793	
11655	-0.104919	-0.0811381	-0.890594	-0.000363059	4.51172e-07	-8.29715e-06	264515	311329	31675.5	
11686	-0.104553	-0.0823191	-0.889784	-0.000196414	0.000196588	1.16584e-05	49787.9	-160704	110215	
11715	-0.104209	-0.0844079	-0.892601	-0.000169529	0.000109808	7.11743e-05	47086.1	-285784	-385418	
11745	-0.106911	-0.0775545	-0.891497	-0.000145515	-3.59417e-05	-0.000125389	-371710	942653	151824	
11775	-0.105576	-0.0773759	-0.891316	-0.000245877	0.000218575	-8.43962e-05	184820	24720.1	25077.1	
11805	-0.106432	-0.0788337	-0.891391	-0.000195975	0.000225249	-7.76254e-05	-119111	-202838	-10432	
11836	-0.106432	-0.0788337	-0.891391	-0.000338908	-1.8157e-05	-9.01438e-05	-119111	-202838	-10432	
11865	-0.0975739	-0.072206	-0.894479	-0.000431814	-0.000176371	-9.82807e-05	1.24158e+06	928955	-432844	
11895	-0.10413	-0.0710275	-0.89543	1.51546e-05	0.000158053	-0.000254105	-925789	166397	-134283	
11925	-0.100743	-0.0815638	-0.896882	-0.000262582	0.000207972	-0.000294389	66416	-594274	-195351	
11955	-0.105288	-0.0811585	-0.893371	-0.000238672	-5.96638e-06	-0.000364716	-648207	57811.7	500672	
11985	-0.105288	-0.0811585	-0.893371	-0.00105541	6.68764e-05	0.000266131	-648207	57811.7	500672	
12046	-0.107892	-0.109949	-0.893431	-7.91723e-05	-1.2657e-05	-3.4756e-09	-194959	-1.88902e+06	579834	
12075	-0.101309	-0.106689	-0.88578	-0.000143509	-0.000636035	0.000191342	958129	474454	1.11353e+06	
12106	-0.0995459	-0.10528	-0.894315	0.000632576	-0.000251727	0.0010933	257211	205459	-1.24518e+06	
12135	-0.109505	-0.135423	-0.89452	0.000848633	-7.91416e-05	4.73457e-05	-1.45985e+06	-4.41821e+06	-30169.3	
12166	-0.12031	-0.155801	-0.882301	0.000104108	-0.00233243	3.19593e-05	-1.5947e+06	-3.00787e+06	1.80363e+06	
12195	-0.120985	-0.177153	-0.838968	-0.000374302	-0.00323479	0.000573049	-100298	-3.17023e+06	6.43376e+06	
12316	-0.142604	-0.184231	-0.721935	-6.04025e-05	-9.67973e-06	3.92437e-10	1.42239e+06	-1.14929e+06	149570	
12376	-0.12636	-0.235806	-0.552025	-5.80099e-05	-9.30767e-06	-7.75342e-11	5.00335e+06	-2.12872e+06	1.23876e+07	
12405	-0.134836	-0.264851	-0.546018	0.0024937	-0.00109495	0.0063177	-1.30076e+06	-4.45735e+06	921761	
12436	-0.138332	-0.267065	-0.527987	0.00155715	-0.00430424	0.00698136	-538518	-341085	2.77788e+06	
12465	-0.140395	-0.292709	-0.505596	0.00108864	-0.00460099	0.00939812	-319128	-3.96593e+06	3.46285e+06	
12495	-0.154951	-0.33944	-0.483906	0.000935459	-0.00650464	0.0110603	-2.26667e+06	-7.27711e+06	3.37771e+06	
12525	-0.137291	-0.298492	-0.477256	-0.000220544	-0.010216	0.0127829	2.76278e+06	6.40629e+06	1.04031e+06	
12555	-0.148864	-0.326521	-0.474067	0.000856941	-0.00771751	0.0131886	-1.82045e+06	-4.40909e+06	501692	
12586	-0.116338	-0.356902	-0.509417	9.23535e-05	-0.00956933	0.0133994	5.14091e+06	-4.8018e+06	-5.58727e+06	
12615	-0.10675	-0.353188	-0.520247	0.00132617	-0.0107218	0.0120584	1.52395e+06	590334	-1.7213e+06	
12646	-0.0954226	-0.383649	-0.521877	0.00173764	-0.0105624	0.0115937	1.80891e+06	-4.86447e+06	-260182	
12706	-0.140112	-0.450426	-0.503839	-0.0888657	0.601944	8.6436e-10	-247810	-570166	307928	
12735	-0.140112	-0.450426	-0.503839	-0.0891928	0.601191	0.000406466	-247810	-570166	307928	
12765	-0.131853	-0.443539	-0.502072	-0.0893638	0.600798	0.000618936	1.34094e+06	1.1181e+06	286963	
12795	-0.133059	-0.449602	-0.507991	-0.0885592	0.601469	0.000791114	-196745	-989554	-966087	
12825	-0.147588	-0.488957	-0.504433	-0.0886713	0.600905	0.000240444	-2.38265e+06	-6.45394e+06	583478	
12885	-0.151975	-0.50847	-0.556206	-0.12268	0.588921	2.91828e-10	-676514	-4.28714e+06	-4.58937e+06	
12915	-0.162982	-0.524291	-0.558637	-0.123085	0.586349	-0.00275362	-1.83037e+06	-2.63083e+06	-404304	
12945	-0.162982	-0.524291	-0.558637	-0.125831	0.582403	-0.00336008	-1.83037e+06	-2.63083e+06	-404304	
13005	-0.158679	-0.538516	-0.532443	-0.118179	0.567485	3.9778e-09	2.75856e+06	445580	6.54065e+06	
13035	-0.135293	-0.616028	-0.54209	-0.11611	0.567819	0.00490549	3.95837e+06	-1.31198e+07	-1.63293e+06	
13065	-0.149909	-0.658505	-0.513411	-0.11516	0.56467	0.00451359	-1.42642e+06	-7.25553e+06	4.71198e+06	
13095	-0.149909	-0.658505	-0.513411	-0.116786	0.556399	0.00988524	-1.42642e+06	-7.25553e+06	4.71198e+06	
13125	-0.143083	-0.664355	-0.482746	-0.117985	0.550304	0.0138433	1.17079e+06	-1.00345e+06	5.25994e+06	
13155	-0.149586	-0.685968	-0.491189	-0.117212	0.549642	0.0173149	-1.12158e+06	-3.72774e+06	-1.4562e+06	
13185	-0.167672	-0.728531	-0.488206	-0.117918	0.547294	0.0163975	-3.13418e+06	-7.3758e+06	517004	
13215	-0.14672	-0.757025	-0.486227	-0.120081	0.542204	0.0167542	3.64623e+06	-4.95872e+06	344357	
13246	-0.149665	-0.781486	-0.514694	-0.117784	0.53908	0.0169711	-515097	-4.27828e+06	-4.97883e+06	
13275	-0.158439	-0.810325	-0.494919	-0.118047	0.536898	0.0144319	-1.54219e+06	-5.06907e+06	3.47588e+06	
13336	-0.159998	-0.818042	-0.491618	-0.0598447	0.411076	3.61322e-09	-275700	-1.36452e+06	583655	
13365	-0.165116	-0.821691	-0.470224	-0.0599853	0.41038	0.000297668	-911727	-650075	3.81181e+06	
13396	-0.149366	-0.856877	-0.455314	-0.0602315	0.410205	0.00132686	1.32845e+06	-3.28387e+06	1.66799e+06	
13425	-0.146463	-0.864577	-0.445977	-0.059833	0.40922	0.00182725	522364	-1.38572e+06	1.68017e+06	
13456	-0.146463	-0.864577	-0.445977	-0.0591904	0.407515	0.00389386	522364	-1.38572e+06	1.68017e+06	
13485	-0.144491	-0.869294	-0.450656	-0.0587517	0.406351	0.0053052	357194	-854199	-847200	
13516	-0.215687	-1.09771	-0.567163	-0.0585052	0.405762	0.00472063	-1.2962e+07	-4.15862e+07	-2.12115e+07	
13545	-0.21871	-1.12664	-0.556737	-0.0697821	0.369582	-0.0137334	-552313	-5.28472e+06	1.90481e+06	
13576	-0.208647	-1.13063	-0.550753	-0.0701964	0.365618	-0.0123048	1.84783e+06	-732113	1.09884e+06	
13605	-0.207082	-1.15044	-0.542062	-0.0690322	0.365157	-0.0116125	288858	-3.65518e+06	1.60356e+06	
13636	-0.216677	-1.21461	-0.537577	-0.0688503	0.362854	-0.0106023	-1.77836e+06	-1.18932e+07	831387	
13665	-0.192004	-1.21372	-0.533231	-0.0692771	0.36	-0.0104027	4.60192e+06	165523	810435	
13695	-0.199466	-1.21297	-0.50053	-0.0680345	0.360045	-0.0101839	-1.39778e+06	140636	6.12515e+06	
13725	-0.198723	-1.20999	-0.511662	-0.0685797	0.360099	-0.00779512	139678	560428	-2.09293e+06	
13755	-0.205908	-1.21167	-0.517477	-0.0685252	0.360318	-0.00861136	-1.35685e+06	-317979	-1.09819e+06	
13785	-0.24317	-1.37	-0.455719	-0.0689323	0.360223	-0.00894082	-7.07047e+06	-3.00435e+07	1.17187e+07	
13816	-0.24317	-1.37	-0.455719	-0.0776289	0.323269	0.00547317	-7.07047e+06	-3.00435e+07	1.17187e+07	
13845	-0.259087	-1.44131	-0.437577	-0.0786895	0.318763	0.00723097	-868799	-5.52656e+06	494892	
13876	-0.259087	-1.44131	-0.437577	-0.0796278	0.312794	0.00776545	-868799	-5.52656e+06	494892	
13905	-0.234212	-1.38293	-0.463749	-0.0803055	0.308483	0.00815147	4.79161e+06	1.1247e+07	-5.04132e+06	
13935	-0.223098	-1.40699	-0.475937	-0.077143	0.315906	0.0048242	2.15134e+06	-4.65861e+06	-2.35935e+06	
13965	-0.224964	-1.39502	-0.476086	-0.075465	0.312273	0.00298391	-362564	2.32728e+06	-29024.7	
13995	-0.231484	-1.38596	-0.478002	-0.0757478	0.314088	0.00296127	-1.27227e+06	1.76614e+06	-373749	
14025	-0.226793	-1.40197	-0.469906	-0.0760531	0.314512	0.00287157	921575	-3.14399e+06	1.59058e+06	
14055	-0.22714	-1.44626	-0.476705	-0.0757213	0.31338	0.00344418	-68423.4	-8.73533e+06	-1.34073e+06	
14085	-0.229427	-1.44983	-0.478388	-0.0757295	0.312332	0.00328329	-453445	-708310	-333815	
14116	-0.231424	-1.44374	-0.470609	-0.075852	0.31214	0.00319316	-397337	1.2119e+06	1.54808e+06	
14145	-0.223842	-1.4328	-0.457306	-0.075995	0.312577	0.00375047	1.5144e+06	2.186e+06	2.65735e+06	
14176	-0.228551	-1.44524	-0.47421	-0.075359	0.313495	0.00486656	-944443	-2.49448e+06	-3.39041e+06	
14205	-0.247189	-1.4925	-0.465791	-0.0756423	0.312746	0.00384943	-3.75547e+06	-9.5229e+06	1.69637e+06	
14236	-0.229311	-1.44339	-0.439388	-0.0769943	0.309318	0.00446013	3.61702e+06	9.93637e+06	5.34192e+06	
14265	-0.229311	-1.44339	-0.439388	-0.0725453	0.32154	0.0110307	3.61702e+06	9.93637e+06	5.34192e+06	
14296	-0.230417	-1.43182	-0.46513	-0.069507	0.329887	0.0155179	-225011	2.35463e+06	-5.24032e+06	
14325	-0.225064	-1.43314	-0.45493	-0.0695205	0.330028	0.0152035	1.09816e+06	-270826	2.09241e+06	
14356	-0.219364	-1.42541	-0.433158	-0.0689934	0.329898	0.0162078	1.17198e+06	1.58875e+06	4.47716e+06	
14385	-0.22181	-1.4284	-0.440965	-0.0681496	0.331042	0.0194314	-504378	-615330	-1.6102e+06	
14416	-0.226937	-1.45282	-0.46593	-0.0684522	0.330673	0.0184653	-1.0626e+06	-5.06123e+06	-5.17382e+06	
14445	-0.226063	-1.44827	-0.464916	-0.0685479	0.330217	0.0179996	182320	949247	211477	
14476	-0.229952	-1.45245	-0.462543	-0.0685041	0.330445	0.0180504	-814095	-875742	496687	
14505	-0.229952	-1.45245	-0.462543	-0.0694077	0.329473	0.0186017	-814095	-875742	496687	
14536	-0.228383	-1.45187	-0.462198	-0.0695787	0.329289	0.018706	375206	-207525	-223341	
14565	-0.229824	-1.45395	-0.460711	-0.0695112	0.329251	0.0186658	-305483	-440376	315151	
14595	-0.229824	-1.45395	-0.460711	-0.0698411	0.328776	0.0190062	-305483	-440376	315151	
14625	-0.229703	-1.45856	-0.459028	-0.0699694	0.328591	0.0191385	25796.9	-983642	359347	
14655	-0.228805	-1.4605	-0.460836	-0.0699524	0.327942	0.0193757	192345	-415988	-387202	
14685	-0.228805	-1.4605	-0.460836	-0.0696523	0.327293	0.0187717	192345	-415988	-387202	
14715	-0.228805	-1.4605	-0.460836	-0.0691791	0.326269	0.0178192	192345	-415988	-387202	
14745	-0.231408	-1.4568	-0.458885	-0.0691734	0.326257	0.0178075	-600480	584673	230112	
14776	-0.233819	-1.45334	-0.457896	-0.0694796	0.326555	0.0179249	-525140	752905	215446	
14805	-0.232695	-1.45491	-0.458535	-0.0697002	0.326871	0.0180154	245854	-344519	-139914	
14835	-0.232695	-1.45491	-0.458535	-0.0693756	0.326417	0.0178307	245854	-344519	-139914	
14866	-0.23285	-1.45424	-0.461876	-0.0692724	0.326272	0.0177719	-34271.3	149904	-736970	
14895	-0.235431	-1.4522	-0.459765	-0.0693002	0.326393	0.017175	-570410	450662	466710	
14926	-0.235316	-1.45421	-0.459704	-0.0694542	0.326515	0.017301	4129.16	-11418.6	220426	
14955	-0.235065	-1.45443	-0.45991	-0.0694537	0.326514	0.0173275	56130.7	-48568.6	-46070.4	
14986	-0.234678	-1.45504	-0.460054	-0.0694318	0.326495	0.0173095	86863.5	-136718	-32279.5	
15015	-0.234678	-1.45504	-0.460054	-0.0693223	0.326322	0.0172688	86863.5	-136718	-32279.5	
15045	-0.235139	-1.45384	-0.460238	-0.0692937	0.326277	0.0172582	-104334	271754	-41668.2	
15075	-0.233726	-1.45436	-0.459308	-0.069375	0.326489	0.0172257	320122	-118368	210697	
15105	-0.232367	-1.45521	-0.459803	-0.0692214	0.326432	0.0173268	309459	-194209	-112700	
15135	-0.233176	-1.45508	-0.461261	-0.069045	0.326322	0.0172626	-184945	29707	-333268	
15165	-0.234865	-1.45285	-0.460825	-0.0691393	0.326337	0.0170926	-387593	512866	100109	
15195	-0.234865	-1.45285	-0.460825	-0.0696858	0.32706	0.0172337	-387593	512866	100109	
15225	-0.23539	-1.45359	-0.4604	-0.0697207	0.327106	0.0172428	-86124.2	509408	-374169	
15255	-0.23598	-1.45232	-0.460151	-0.0697491	0.327274	0.0171193	-137054	294591	57795	
15285	-0.235944	-1.45145	-0.458835	-0.0697902	0.327363	0.0171366	8197.7	202894	307101	
15315	-0.235944	-1.45145	-0.458835	-0.0697804	0.327606	0.0175051	8197.7	202894	307101	
15345	-0.233134	-1.45447	-0.462435	-0.0697792	0.327637	0.0175512	661393	-711048	-847055	
15376	-0.233134	-1.45447	-0.462435	-0.0690649	0.326869	0.0166364	661393	-711048	-847055	
15405	-0.232234	-1.45934	-0.462	-0.0689061	0.326698	0.0164331	-111116	295015	-47027.5	
15435	-0.232234	-1.45934	-0.462	-0.0690328	0.327034	0.0163795	-111116	295015	-47027.5	
15465	-0.231657	-1.46278	-0.460306	-0.0690861	0.327176	0.0163569	137769	-821526	404294	
15495	-0.230977	-1.45843	-0.463404	-0.0690283	0.326831	0.0165267	415173	-37631.9	-808505	
15525	-0.229999	-1.46029	-0.461928	-0.0688041	0.326811	0.0160901	234982	-446673	354886	
15555	-0.229999	-1.46029	-0.461928	-0.0684657	0.326167	0.0166012	234982	-446673	354886	
15585	-0.231891	-1.46143	-0.462251	-0.0682754	0.325806	0.0168886	-457917	-277119	-78133.3	
15645	-0.229488	-1.4639	-0.46258	-0.0486822	-2.41384e-05	7.80888e-11	301135	-311548	-260880	
15675	-0.230239	-1.46358	-0.461567	-0.048628	-8.0217e-05	-4.69582e-05	-184165	80486.9	248824	
15705	-0.230239	-1.46358	-0.461567	-0.0488269	6.70889e-06	0.000221771	-184165	80486.9	248824	
15735	-0.230476	-1.4615	-0.460378	-0.0488766	2.84404e-05	0.000288954	-98088.7	23700.2	70651.5	
15765	-0.230476	-1.4615	-0.460378	-0.0489913	5.61696e-05	0.000371616	-98088.7	23700.2	70651.5	
15795	-0.227571	-1.46477	-0.459102	-0.049059	7.25227e-05	0.000420365	722626	-814142	317437	
15825	-0.227571	-1.46477	-0.459102	-0.0479101	-0.00122196	0.00092509	722626	-814142	317437	
15855	-0.230355	-1.46311	-0.463355	-0.04778	-0.00136851	0.000982229	-462622	100688	64684.3	
15885	-0.231152	-1.463	-0.463953	-0.0478633	-0.00135038	0.000993872	-200876	28766.2	-150758	
15916	-0.231872	-1.46191	-0.463301	-0.0479958	-0.0013314	0.000894371	-181834	275548	164748	
15945	-0.231326	-1.46171	-0.462568	-0.0480613	-0.0012322	0.000953681	138617	50335.1	185973	
15976	-0.231215	-1.46095	-0.46354	-0.0480322	-0.00122163	0.000992735	28279.8	194414	-247803	
16005	-0.231215	-1.46095	-0.46354	-0.0480016	-0.00101166	0.000725108	28279.8	194414	-247803	
16066	-0.230483	-1.46003	-0.46269	-0.00227922	-0.000226581	2.43476e-10	248547	-237376	-22221.1	
16095	-0.232172	-1.45941	-0.464618	-0.00208535	-0.000411734	-1.73322e-05	-436194	160135	-497997	
16125	-0.233004	-1.45984	-0.46283	-0.00224238	-0.000354086	-0.000196611	-216083	-112750	464132	
16155	-0.234113	-1.45986	-0.463492	-0.00241741	-0.000445414	0.000179335	-288464	-5014.54	-172069	
16185	-0.23424	-1.45376	-0.461374	-0.00252991	-0.000447369	0.000112229	-33192.8	1.5952e+06	553907	
16215	-0.235719	-1.45377	-0.460809	-0.00255082	0.000557608	0.00046119	-387791	-2784.28	148116	
16245	-0.234579	-1.45395	-0.461581	-0.00279513	0.000555854	0.000554504	299997	-47116.1	-203099	
16275	-0.234043	-1.45335	-0.462177	-0.00265113	0.000533239	0.000457016	141571	159734	-157642	
16305	-0.234043	-1.45335	-0.462177	-0.00245576	0.000753672	0.00023947	141571	159734	-157642	
16335	-0.232347	-1.46086	-0.4623	-0.00243453	0.000777632	0.000215824	-85732.1	-3849.5	-43039.9	
16366	-0.232347	-1.46086	-0.4623	-0.00252712	0.000773475	0.000169341	-85732.1	-3849.5	-43039.9	
16455	-0.233049	-1.4602	-0.460994	-0.000210937	-7.33722e-05	5.81196e-11	53112.2	-220434	288055	
16486	-0.233585	-1.45943	-0.461564	-0.00019819	-0.000126276	6.91333e-05	-145474	208497	-154685	
16515	-0.233585	-1.45943	-0.461564	-0.000359666	0.000105155	-0.000102567	-145474	208497	-154685	
16545	-0.231922	-1.46182	-0.460634	-0.000433857	0.000211489	-0.000181456	454313	-652750	254045	
16575	-0.232923	-1.45985	-0.461538	-0.000297563	1.56639e-05	-0.000105243	-274593	540293	-248118	
16605	-0.232476	-1.46156	-0.460697	-0.000388179	0.00019396	-0.000187121	123160	-471637	231574	
16635	-0.231483	-1.46242	-0.460687	-0.000295809	-0.000159767	-1.34407e-05	273710	-237288	2646.53	
16665	-0.233057	-1.46257	-0.46114	-0.000131583	-0.00030214	-1.18528e-05	-436010	-42007	-125415	
16695	-0.228978	-1.4614	-0.460132	-0.000262386	-0.000314742	-4.94773e-05	1.13553e+06	325903	280673	
16785	-0.231106	-1.46115	-0.459096	-0.000250348	5.27988e-05	2.83511e-10	-290947	-37996.7	-354018	
16815	-0.242802	-1.468	-0.448103	-0.000311447	4.48195e-05	-7.43434e-05	-3.30403e+06	-1.93691e+06	3.1057e+06	
16846	-0.242191	-1.47838	-0.451373	-0.000906172	-0.000303825	0.000484683	-1.74684e+06	-1.60562e+06	-3.05417e+06	
16875	-0.242191	-1.47838	-0.451373	-0.00279276	-0.0020379	-0.00281382	-1.74684e+06	-1.60562e+06	-3.05417e+06	
16905	-0.231127	-1.46057	-0.462084	-0.00426011	-0.00338662	-0.00537933	3.15148e+06	5.07258e+06	-3.05073e+06	
16935	-0.232286	-1.45737	-0.463978	-0.00236923	-0.000343075	-0.00720976	-331679	916648	-541928	
16965	-0.233088	-1.45937	-0.459904	-0.00253838	0.000124415	-0.00748615	-230318	-574313	1.17021e+06	
16995	-0.231604	-1.45864	-0.459805	-0.0026973	-0.000271861	-0.0066787	427409	209167	28583.8	
17025	-0.231164	-1.45744	-0.459309	-0.00241521	-0.00013381	-0.00665983	127246	348217	143213	
17055	-0.233378	-1.45654	-0.45966	-0.00232741	0.00010646	-0.00656102	-642233	261251	-101772	
17085	-0.231562	-1.4589	-0.459356	-0.00267422	0.000247535	-0.00661597	528856	-689209	88423	
17116	-0.231562	-1.4589	-0.459356	-0.0018968	-0.000765602	-0.00648599	528856	-689209	88423	
17145	-0.231612	-1.46019	-0.457661	-0.00176987	-0.000931012	-0.00646477	-278534	-265768	985996	
17176	-0.232614	-1.45754	-0.458673	-0.0018033	-0.000962904	-0.00634645	-295429	781092	-298340	
17205	-0.235234	-1.45388	-0.458982	-0.00183875	-0.000869173	-0.00638225	-775183	1.08381e+06	-91470.3	
17236	-0.235994	-1.45114	-0.459022	-0.00200154	-0.000641573	-0.00640146	-225620	813129	-11873.6	
17265	-0.235994	-1.45114	-0.459022	-0.00224521	0.000236607	-0.00641428	-225620	813129	-11873.6	
17296	-0.235994	-1.45114	-0.459022	-0.0026987	0.001871	-0.00643815	-225620	813129	-11873.6	
17325	-0.231338	-1.45795	-0.459538	-0.00277316	0.00213933	-0.00644207	1.58735e+06	-2.4385e+06	683854	
17355	-0.239126	-1.46824	-0.448472	-0.00196361	0.000895693	-0.0060933	-2.341e+06	-3.09318e+06	3.3267e+06	
17385	-0.233027	-1.45713	-0.460717	-0.00350867	-0.00114581	-0.00389768	1.8387e+06	3.3502e+06	-3.69167e+06	
17415	-0.231304	-1.46057	-0.461406	-0.0029019	-4.02416e-05	-0.00511593	521696	-1.0437e+06	-208738	
17446	-0.234578	-1.4574	-0.462253	-0.00247933	-0.00088564	-0.00528501	-993288	961829	-257052	
17535	-0.229754	-1.46184	-0.460517	-0.000326206	0.00062831	7.27508e-11	926595	-831450	-122994	
17566	-0.232	-1.45996	-0.460164	-7.60255e-05	0.000403819	-3.32083e-05	-692247	581018	108903	
17625	-0.233101	-1.45963	-0.458779	0.000355185	0.000780281	3.14043e-10	-340686	101011	428397	
17655	-0.23803	-1.45736	-0.449954	0.000293862	0.000798463	7.71117e-05	1.09116e+06	4.57286e+06	195016	
17685	-0.23803	-1.45736	-0.449954	0.00147231	0.00573715	0.000287729	1.09116e+06	4.57286e+06	195016	
17715	-0.233401	-1.45724	-0.459895	0.00219247	0.00875523	0.00041644	1.44923e+06	38717	-3.11208e+06	
17746	-0.241522	-1.47066	-0.449873	0.00310549	0.00877962	-0.00154417	-2.5514e+06	-4.21758e+06	3.14876e+06	
17775	-0.241522	-1.47066	-0.449873	-0.000721604	0.00245326	0.00317897	-2.5514e+06	-4.21758e+06	3.14876e+06	
17805	-0.24423	-1.47041	-0.449579	-0.00186973	0.000555345	0.00459591	-857277	80142.2	93214.3	
17836	-0.235415	-1.45537	-0.460834	-0.00222979	0.000589005	0.00463506	170461	81702.8	-230436	
17865	-0.235415	-1.45537	-0.460834	-0.00200989	0.000694402	0.0043378	170461	81702.8	-230436	
17896	-0.237794	-1.45247	-0.465222	-0.00195876	0.000718912	0.00426867	-763668	844149	-1.11787e+06	
17956	-0.238076	-1.45061	-0.464566	-0.0462309	0.00152292	4.05536e-11	-602804	115151	1.97399e+06	
17985	-0.236806	-1.4559	-0.463497	-0.0463213	0.00154019	0.000296099	410528	-1.71037e+06	345548	
18016	-0.236806	-1.4559	-0.463497	-0.0458779	-0.000307006	0.00066929	410528	-1.71037e+06	345548	
18045	-0.232666	-1.45557	-0.463509	-0.0455454	-0.0016924	0.000949183	1.34381e+06	108575	-3703.82	
18075	-0.234163	-1.45477	-0.463115	-0.0446585	-0.00162074	0.000946739	-487906	258515	128301	
18105	-0.234163	-1.45477	-0.463115	-0.0454196	-0.00121746	0.00114689	-487906	258515	128301	
18135	-0.235338	-1.45485	-0.462555	-0.0455806	-0.00113215	0.00118923	15074.2	553196	18294	
18166	-0.235531	-1.45582	-0.461997	-0.0455743	-0.000899808	0.00119691	-63498.3	-319294	183613	
18255	-0.234221	-1.45864	-0.461788	-0.00627329	-0.00186259	2.79652e-10	41040.3	-597110	-129477	
18316	-0.233636	-1.45734	-0.458545	-0.00341405	-0.000640634	2.85115e-10	-110017	-546730	972464	
18345	-0.235893	-1.45541	-0.458613	-0.00343385	-0.000739046	0.000175044	-505657	920119	-122704	
18376	-0.235893	-1.45541	-0.458613	-0.00399513	0.000282287	3.88419e-05	-505657	920119	-122704	
18405	-0.233303	-1.45889	-0.459705	-0.00419233	0.000641133	-9.01289e-06	876253	-1.17769e+06	-369520	
18436	-0.232772	-1.46002	-0.459413	-0.00403461	0.000429148	-7.55264e-05	180368	-384065	99140.2	
18465	-0.234179	-1.4553	-0.459793	-0.00394803	0.000244797	-2.79391e-05	-478925	1.60689e+06	-129031	
18495	-0.236599	-1.45297	-0.459909	-0.00406297	0.00063045	-5.89065e-05	-826921	796985	-39882.7	
18525	-0.234625	-1.45676	-0.457891	-0.0044847	0.00103691	-7.92467e-05	676189	-1.29653e+06	691494	
18555	-0.233178	-1.46241	-0.460756	-0.00430213	0.000686848	0.000107457	497524	-1.9432e+06	-985534	
18586	-0.23446	-1.45925	-0.46283	-0.00394392	-0.000712256	-0.000602128	-441747	1.08883e+06	-714724	
18616	-0.23446	-1.45925	-0.46283	-0.00464629	0.00101898	-0.00173854	-441747	1.08883e+06	-714724	
18676	-0.234391	-1.4551	-0.461485	-0.00073537	-0.000669642	1.41329e-10	4.31456e+06	5.35143e+06	-4.44336e+06	
18705	-0.233072	-1.45848	-0.462853	-0.000217623	-2.74709e-05	-0.000533203	461513	-1.18043e+06	-478222	
18735	-0.233072	-1.45848	-0.462853	0.000253121	-0.00123151	-0.00102099	461513	-1.18043e+06	-478222	
18795	-0.231892	-1.45664	-0.466058	-0.000358966	-0.00043516	1.60297e-10	-33495.4	-81591.1	-667346	
18826	-0.230664	-1.45614	-0.462772	-0.000375044	-0.000474324	-0.000320326	434452	175237	1.1625e+06	
18855	-0.229309	-1.45725	-0.462869	-0.00014044	-0.000379696	0.000307426	480816	-393549	-34450.8	
18885	-0.23256	-1.4549	-0.462448	0.000191323	-0.000651245	0.000283655	-1.15665e+06	835179	149866	
18915	-0.233534	-1.45526	-0.462374	-0.000606768	-7.49713e-05	0.000387062	-347770	-126144	26309.2	
18945	-0.231728	-1.45951	-0.462398	-0.000794564	-0.000143089	0.000401269	647165	-1.52208e+06	-8374.09	
18976	-0.232864	-1.45625	-0.462258	-0.00027036	-0.00137598	0.000394486	-407831	1.16856e+06	50289.2	
19005	-0.231557	-1.45945	-0.46252	-0.000331535	-0.00120069	0.000402029	471682	-1.15299e+06	-94894.6	
19036	-0.231994	-1.4602	-0.46434	-0.000289084	-0.00130446	0.000393489	-158061	-274422	-659098	
19125	-0.229991	-1.46225	-0.462765	-0.0444994	0.00167359	4.19257e-11	-468754	-782987	723672	
19156	-0.268751	-1.49103	-0.502228	-0.0446259	0.00146219	0.000195391	-1.42098e+07	-1.05515e+07	-1.44676e+07	
19185	-0.268751	-1.49103	-0.502228	-0.060825	-0.0105665	-0.0162977	-1.42098e+07	-1.05515e+07	-1.44676e+07	
19215	-0.252397	-1.48647	-0.487883	-0.0706298	-0.0178471	-0.0262803	6.02378e+06	1.67927e+06	5.28373e+06	
19246	-0.252397	-1.48647	-0.487883	-0.0608713	-0.0151267	-0.0177207	6.02378e+06	1.67927e+06	5.28373e+06	
19275	-0.255763	-1.4856	-0.485244	-0.0594255	-0.0147237	-0.0164526	-1.24931e+06	325256	979727	
19306	-0.25587	-1.4824	-0.486235	-0.0596129	-0.0146749	-0.0163057	13097.1	776427	1.1703e+06	
19335	-0.256845	-1.47991	-0.487771	-0.0596078	-0.0143721	-0.0158492	-363833	930479	-573583	
19365	-0.256845	-1.47991	-0.487771	-0.0600772	-0.0131717	-0.0165892	-363833	930479	-573583	
19395	-0.256912	-1.48089	-0.487808	-0.0603828	-0.0123901	-0.017071	-25028.9	-370909	-13833.1	
19425	-0.256154	-1.48132	-0.487685	-0.0603865	-0.0124458	-0.017073	214824	-54617.1	-86070.3	
19455	-0.256154	-1.48132	-0.487685	-0.060161	-0.0125031	-0.0171634	214824	-54617.1	-86070.3	
19485	-0.256484	-1.48089	-0.486805	-0.0601223	-0.012513	-0.0171789	678096	78272.1	1.07961e+06	
19515	-0.257442	-1.48155	-0.488177	-0.0600206	-0.0125012	-0.017017	-364318	-249425	-522141	
19575	-0.255813	-1.48002	-0.487093	-0.0492781	0.000438644	2.62242e-10	622037	585374	413909	
19605	-0.276465	-1.52514	-0.500766	-0.0489236	0.000772307	0.000235928	-7.92239e+06	-1.73112e+07	-5.24497e+06	
19635	-0.273733	-1.53328	-0.494435	-0.05439	-0.0111725	-0.0033831	1.05081e+06	-3.12912e+06	2.43488e+06	
19665	-0.273964	-1.53312	-0.494679	-0.0540117	-0.0122989	-0.00250654	-89200.2	59568.7	-93975.4	
19725	-0.27503	-1.53194	-0.494903	-0.0525154	-0.00194282	3.9292e-10	-413133	457739	-86900.4	
19755	-0.27503	-1.53194	-0.494903	-0.0533087	-0.00106396	-0.000166848	-413133	457739	-86900.4	
19785	-0.272197	-1.53633	-0.494252	-0.0534574	-0.000899174	-0.000198132	-472601	1.36498e+06	36721.6	
19845	-0.272725	-1.53573	-0.494381	-0.0518421	-0.000569196	3.41578e-10	-35364.2	-199867	-39074.2	
19876	-0.270369	-1.53966	-0.492338	-0.0518485	-0.000605172	-7.03302e-06	812180	-1.5367e+06	522155	
19905	-0.270604	-1.54011	-0.492852	-0.0516779	-0.000927879	0.00010262	-93143.5	-177216	-203341	
19936	-0.270604	-1.54011	-0.492852	-0.0517841	-0.0011299	-0.000129189	-93143.5	-177216	-203341	
19965	-0.270763	-1.5404	-0.493305	-0.0518456	-0.00124687	-0.000263394	-63358.4	-118938	-180296	
19996	-0.271319	-1.53971	-0.493182	-0.0518817	-0.00131466	-0.000366163	-221944	278606	49190.9	
20025	-0.27159	-1.53783	-0.492481	-0.0520149	-0.0011475	-0.000336649	-108246	751059	280561	
20055	-0.270479	-1.54031	-0.49295	-0.0520896	-0.000629268	-0.000143061	445617	-996418	-188169	
20085	-0.272096	-1.53708	-0.494179	-0.0518757	-0.00110755	-0.000233383	-650965	1.30251e+06	-495025	
20115	-0.272273	-1.53637	-0.493685	-0.0521491	-0.000560494	-0.000441293	-71911.1	287983	199402	
20175	-0.27149	-1.53888	-0.493912	-0.0492205	-0.000857278	3.36164e-11	85116.4	-199960	306021	
20206	-0.27149	-1.53888	-0.493912	-0.0491311	-0.00106724	0.000321322	85116.4	-199960	306021	
20296	-0.26895	-1.5391	-0.488341	-0.0436417	-0.00076011	2.17722e-10	1.74204e+06	-1.6002e+06	2.38047e+06	
20325	-0.266867	-1.54148	-0.49135	-0.0432759	-0.00109615	0.000499899	859751	-983973	-1.24218e+06	
20355	-0.269749	-1.5372	-0.488877	-0.0427343	-0.00171606	-0.000282676	-1.19143e+06	1.76931e+06	1.02261e+06	
20385	-0.270743	-1.53655	-0.49228	-0.0432704	-0.000919868	0.000177497	-412602	269465	-1.41194e+06	
20415	-0.269646	-1.5399	-0.490418	-0.0435056	-0.000766273	-0.000627307	456418	-1.39474e+06	774312	
20445	-0.269125	-1.5408	-0.489806	-0.0432728	-0.00147759	-0.000232408	217388	-373409	255494	
20475	-0.269911	-1.54093	-0.49026	-0.0432337	-0.0015448	-0.000186419	-329168	-53692.3	-190030	
20505	-0.269911	-1.54093	-0.49026	-0.0435892	-0.00160279	-0.000391651	-329168	-53692.3	-190030	
20595	-0.272397	-1.53487	-0.488586	-0.000733864	-0.000408513	4.14791e-11	-473217	823818	1.19534e+06	
20655	-0.273418	-1.53258	-0.490794	-0.000783178	0.0008496	2.98664e-10	-434174	976005	-938430	
20685	-0.270021	-1.53363	-0.490812	-0.00108276	0.00152304	-0.000647517	1.45042e+06	-449485	-7951.97	
20716	-0.270021	-1.53363	-0.490812	0.00126692	0.000794877	-0.000660399	1.45042e+06	-449485	-7951.97	
20745	-0.272369	-1.53598	-0.4948	0.00161502	0.000687001	-0.000662307	-129258	-1.51481e+06	114861	
20776	-0.273594	-1.53499	-0.4943	0.00152583	-0.000358221	-0.000583053	-527548	427301	215315	
20805	-0.273528	-1.5353	-0.494834	0.00125679	-0.000140298	-0.000473243	28655.3	-133054	-230571	
20835	-0.269489	-1.53658	-0.492592	0.0012628	-0.000168239	-0.000521663	1.7518e+06	-556407	972378	
20866	-0.270154	-1.53421	-0.490944	0.00236644	-0.000518775	9.09357e-05	-288797	1.02854e+06	716141	
20895	-0.270154	-1.53421	-0.490944	0.00192458	0.00105489	0.00118663	-288797	1.02854e+06	716141	
20926	-0.268639	-1.53479	-0.492513	0.00182061	0.00142516	0.00144444	272338	-45623.9	-181029	
21015	-0.266797	-1.53908	-0.493381	3.03999e-07	0.000154576	5.50606e-11	514818	-1.79895e+06	-1.81157e+06	
21046	-0.266494	-1.53722	-0.494823	0.000108416	-0.000223202	-0.000380429	134081	823202	-638271	
21075	-0.266494	-1.53722	-0.494823	0.000253223	0.000665856	-0.00106976	134081	823202	-638271	
21105	-0.269644	-1.53994	-0.494701	0.00031356	0.0010363	-0.00135698	-1.40103e+06	-1.20871e+06	54099.9	
21135	-0.270205	-1.53857	-0.4948	-0.000485025	0.00034733	-0.00132615	-250186	612306	-44184	
21165	-0.270658	-1.53762	-0.495596	-0.000605114	0.000641237	-0.00134736	-202376	425810	-355973	
21196	-0.270658	-1.53762	-0.495596	-0.000890465	0.00124163	-0.00184928	-202376	425810	-355973	
21225	-0.27031	-1.53881	-0.495243	-0.000975463	0.00142047	-0.00199879	156636	-536247	158909	
21255	-0.27329	-1.53419	-0.495361	-0.000919074	0.00122742	-0.00194158	-1.35401e+06	2.00382e+06	-1.63314e+06	
21285	-0.27329	-1.53419	-0.495361	-0.00262512	0.00375223	-0.00399934	-1.35401e+06	2.00382e+06	-1.63314e+06	
21345	-0.272087	-1.5387	-0.496155	0.000430992	0.000107773	3.2603e-10	-120809	-128854	-590015	
21375	-0.271999	-1.5393	-0.49622	0.000322264	-8.1962e-06	-0.000531013	39854.2	-270079	-29744.8	
21435	-0.271946	-1.53693	-0.495524	0.000440325	-0.000812838	2.33645e-10	1.13007e+06	-1.91894e+06	179265	
21466	-0.271946	-1.53693	-0.495524	0.00254226	-0.00438206	0.000333432	1.13007e+06	-1.91894e+06	179265	
21495	-0.271946	-1.53693	-0.495524	0.00562736	-0.00962077	0.000822824	1.13007e+06	-1.91894e+06	179265	
21525	-0.272835	-1.53676	-0.496425	0.00606809	-0.0103692	0.000892738	-217550	18359.9	70250.5	
21556	-0.272693	-1.53637	-0.496007	0.00595061	-0.0103592	0.000930673	66024.5	178686	193872	
21585	-0.272076	-1.53686	-0.495574	0.00597834	-0.0102842	0.0010121	287150	-225300	201704	
21615	-0.27265	-1.5345	-0.49553	0.00612479	-0.0103991	0.00111497	-268070	1.09834e+06	20635.8	
21646	-0.27265	-1.5345	-0.49553	0.00574681	-0.00885043	0.00114406	-268070	1.09834e+06	20635.8	
21675	-0.272504	-1.53651	-0.495456	0.00553771	-0.00799372	0.00116016	68540.1	-939024	34722.9	
21706	-0.271938	-1.53872	-0.495542	0.00558501	-0.00864165	0.00118412	266144	-1.03817e+06	-40392.9	
21735	-0.271938	-1.53872	-0.495542	0.00600019	-0.0102612	0.00112111	266144	-1.03817e+06	-40392.9	
21765	-0.270044	-1.54069	-0.495418	0.00608004	-0.0105727	0.00110899	-2.11786e+06	567940	-4.94725e+06	
21795	-0.271323	-1.5381	-0.496949	0.00455517	-0.0101637	-0.00245303	-606242	1.22385e+06	-725945	
21825	-0.270896	-1.54215	-0.496571	0.00417324	-0.00939271	-0.00291038	203074	-1.92297e+06	179873	
21856	-0.270687	-1.54201	-0.495833	0.00427072	-0.0103157	-0.00282404	99440.3	66767.4	351961	
21885	-0.270563	-1.54198	-0.495686	0.00430651	-0.0102917	-0.00269733	59517.1	11807.6	70132.9	
21916	-0.270062	-1.5429	-0.49515	0.00434044	-0.010285	-0.00265736	240110	-441325	257279	
21945	-0.269521	-1.54266	-0.495082	0.00444129	-0.0104703	-0.0025493	260139	120002	32520.2	
21975	-0.267988	-1.54214	-0.49524	0.00458176	-0.0104055	-0.00253174	739346	249599	-76172.8	
22005	-0.267798	-1.54095	-0.494425	0.0047592	-0.0103456	-0.00255002	91794.8	575869	394668	
22066	-0.266915	-1.54218	-0.492742	6.98253e-05	-0.000405318	2.86468e-10	428808	-600569	816753	
22095	-0.269189	-1.5428	-0.4943	0.000430024	-0.000909796	0.000686073	-1.1077e+06	-298319	-758586	
22125	-0.272247	-1.53751	-0.49502	-6.84398e-05	-0.00104404	0.000344709	-1.49457e+06	2.58717e+06	-352227	
22155	-0.271896	-1.53786	-0.49473	-0.000337462	-0.000578349	0.000281308	38584.1	-147483	351963	
22185	-0.271896	-1.53786	-0.49473	-0.000295791	-0.000737631	0.000661428	38584.1	-147483	351963	
22215	-0.271896	-1.53786	-0.49473	-0.000219395	-0.00102965	0.00135831	38584.1	-147483	351963	
22246	-0.273548	-1.53421	-0.493714	-0.000206662	-0.00107832	0.00147446	-787608	1.01316e+06	286118	
22275	-0.272749	-1.53587	-0.494426	-0.000655598	-0.000500818	0.00163755	395886	-823580	-352788	
22306	-0.273316	-1.53483	-0.494351	-0.000548709	-0.000723184	0.0015423	-281998	518482	37249.4	
22335	-0.272104	-1.53779	-0.494086	-0.000743288	-0.000365432	0.001568	603492	-1.47357e+06	132322	
22365	-0.271267	-1.53897	-0.493922	-0.000453612	-0.00107275	0.00163151	417960	-589330	81498.6	
22396	-0.272543	-1.53702	-0.494219	-0.000278069	-0.00132027	0.00166574	-639185	975509	-148619	
22425	-0.272543	-1.53702	-0.494219	-0.00110262	-6.18601e-05	0.00147402	-639185	975509	-148619	
22456	-0.271178	-1.5389	-0.493985	-0.00114097	-3.32957e-06	0.00146511	-318289	1.06185e+06	-224659	
22515	-0.271401	-1.53822	-0.493429	6.04373e-10	2.69039e-10	2.97855e-10	-112558	341840	280864	
22545	-0.27109	-1.53854	-0.494358	-9.45477e-05	0.000287146	0.000235926	157748	-164843	-470873	
22575	-0.270793	-1.5393	-0.493565	-8.98153e-05	0.0002822	0.0002218	-394680	296570	122990	
22605	-0.270793	-1.5393	-0.493565	-0.000456867	0.000558011	0.00033618	-394680	296570	122990	
22635	-0.27066	-1.53969	-0.49389	-0.000646314	0.000700365	0.000395215	68208.5	-197168	-166388	
22666	-0.270434	-1.54002	-0.493227	-0.000603342	0.000576148	0.000290391	115659	-167950	339839	
22695	-0.270434	-1.54002	-0.493227	-0.000426383	0.000319186	0.000810344	115659	-167950	339839	
22725	-0.273388	-1.53428	-0.495502	-0.000419444	0.000309109	0.000830735	-1.52509e+06	2.9606e+06	-1.17439e+06	
22756	-0.273706	-1.53331	-0.494878	-0.000510949	0.000486745	0.000760271	-200819	131444	-74956	
22785	-0.273706	-1.53331	-0.494878	-0.000697711	0.000608988	0.000690562	-200819	131444	-74956	
22816	-0.272621	-1.53588	-0.494363	-0.000884473	0.000731231	0.000620853	563558	-1.33495e+06	267691	
22845	-0.271287	-1.53347	-0.496591	-0.000444898	-0.000310029	0.000829652	694661	1.25363e+06	-1.16018e+06	
22876	-0.271304	-1.53198	-0.494669	-0.000340698	-0.000121984	0.000655624	1.15302e+06	-610118	-694274	
22905	-0.271304	-1.53198	-0.494669	0.000835381	-0.000744304	-5.25354e-05	1.15302e+06	-610118	-694274	
22936	-0.271196	-1.53482	-0.495884	0.000973744	-0.000817518	-0.000135848	-125979	-658532	-661397	
22965	-0.270649	-1.53393	-0.494108	0.000966185	-0.00085703	-0.000175532	288525	467857	936599	
22996	-0.270649	-1.53393	-0.494108	0.00124317	-0.000407887	0.000723603	288525	467857	936599	
23025	-0.27249	-1.5352	-0.495026	0.00128645	-0.000337708	0.000864093	-975616	-675589	-486519	
23056	-0.271641	-1.53651	-0.494512	0.000788884	-0.000682259	0.000615968	450580	-692968	272654	
23085	-0.272132	-1.53576	-0.494196	0.000991645	-0.000994094	0.000738662	-261306	398620	168231	
23115	-0.272243	-1.53587	-0.494014	0.000897574	-0.000850591	0.000799226	-58818.4	-57762.1	97206.4	
23146	-0.272601	-1.5351	-0.494426	0.000871106	-0.000876584	0.000842969	-191969	414185	-220073	
23175	-0.272601	-1.5351	-0.494426	0.000617707	-0.00032986	0.000552472	-191969	414185	-220073	
23206	-0.271788	-1.53447	-0.492218	0.000548598	-0.000180753	0.000473246	437562	337184	1.18768e+06	
23235	-0.273414	-1.53355	-0.492606	0.000876769	7.21346e-05	0.00136401	-876156	494081	-209388	
23295	-0.271771	-1.53821	-0.492332	-0.000232575	0.00023506	3.30501e-10	-26764.8	-114418	-188059	
23325	-0.275033	-1.5305	-0.494235	-0.000253451	0.000145814	-0.000146686	-1.77073e+06	4.18712e+06	-1.03296e+06	
23355	-0.274196	-1.53343	-0.494049	-0.00152838	0.00316054	-0.00089042	455408	-1.59518e+06	101416	
23385	-0.273402	-1.53505	-0.49376	-0.00135077	0.00253842	-0.000850868	433773	-881791	157657	
23415	-0.274056	-1.5331	-0.49142	-0.00114256	0.00211516	-0.000775193	-358404	1.06832e+06	1.28151e+06	
23445	-0.272619	-1.53315	-0.490894	-0.00129309	0.00256385	-0.000236959	789113	-31547.6	288607	
23475	-0.272025	-1.53694	-0.493536	-0.000914314	0.00254871	-9.84275e-05	327148	-2.08174e+06	-1.45364e+06	
23505	-0.269581	-1.54046	-0.491386	-0.000757283	0.00154947	-0.000796173	1.34824e+06	-1.94582e+06	1.18602e+06	
23535	-0.270019	-1.53799	-0.493096	-0.000271915	0.00084898	-0.000369205	-242257	1.36609e+06	-946430	
23565	-0.270019	-1.53799	-0.493096	-0.000577159	0.00257025	-0.00156171	-242257	1.36609e+06	-946430	
23625	-0.268885	-1.53676	-0.489719	-0.000473661	-0.000763135	2.09849e-10	129071	-473883	-14617.7	
23656	-0.268683	-1.53932	-0.48946	-0.000392346	-0.00106168	-9.20893e-06	112976	-1.42541e+06	144877	
23685	-0.267419	-1.53717	-0.491606	-0.000378789	-0.00123273	8.17632e-06	708572	1.20343e+06	-1.20361e+06	
23716	-0.265671	-1.54006	-0.490413	2.50974e-05	-0.000546776	-0.000677882	981585	-1.62417e+06	670097	
23745	-0.271289	-1.53765	-0.494356	0.000201783	-0.000839127	-0.000557265	-3.16603e+06	1.35796e+06	-2.22237e+06	
23776	-0.271936	-1.53687	-0.495002	-0.0018878	5.71297e-05	-0.00202403	-364974	442104	-364356	
23805	-0.269059	-1.53356	-0.486544	-0.00194254	0.000123445	-0.00207868	1.62995e+06	1.87619e+06	4.79076e+06	
23835	-0.2691	-1.53345	-0.48679	-0.00125797	0.000911445	-6.65647e-05	-23675.4	57973.1	-139727	
23866	-0.268966	-1.53378	-0.486414	-0.00126436	0.000927098	-0.000104291	76435.8	-182715	214439	
23895	-0.269822	-1.53217	-0.486261	-0.0012185	0.000817469	2.43724e-05	-488054	917872	87274.8	
23926	-0.269822	-1.53217	-0.486261	-0.00196522	0.00222181	0.000157903	-488054	917872	87274.8	
23955	-0.273105	-1.53454	-0.494324	-0.00230198	0.00285514	0.000218122	-1.88038e+06	-1.3596e+06	-4.61831e+06	
23985	-0.274425	-1.53021	-0.49456	-0.0039379	0.00167229	-0.00379981	-757581	2.48537e+06	-135196	
24015	-0.275304	-1.52828	-0.495201	-0.00457427	0.00376	-0.00391337	-505518	1.11084e+06	-368887	
24075	-0.27353	-1.5324	-0.49551	0.000450759	0.000557865	2.6271e-10	1.19741e+06	-2.4054e+06	-375272	
24105	-0.274506	-1.53079	-0.495528	0.00138474	-0.00131835	-0.000292712	-565493	932868	-10826.6	
24135	-0.270185	-1.53875	-0.49396	0.000943655	-0.000590712	-0.000301157	2.51107e+06	-4.62747e+06	911484	
24165	-0.270558	-1.53712	-0.493209	0.00116965	-0.00100718	-0.000219123	-217837	951163	438528	
24195	-0.272361	-1.53415	-0.492495	0.00109123	-0.000664765	-6.12532e-05	-1.05426e+06	1.73668e+06	417668	
24225	-0.272352	-1.53415	-0.490609	0.000585186	0.000168842	0.000139227	5581.07	-327.495	1.10546e+06	
24255	-0.26842	-1.53117	-0.488439	0.000587697	0.000168695	0.000636685	2.31012e+06	1.75172e+06	1.27473e+06	
24285	-0.269383	-1.53195	-0.489646	0.00114213	0.000589108	0.00094262	-567819	-460469	-711424	
24315	-0.269383	-1.53195	-0.489646	0.000494812	6.41731e-05	0.000131596	-567819	-460469	-711424	
24345	-0.270743	-1.53219	-0.489901	5.19134e-05	-0.000294993	-0.000423314	-803778	-141555	-150946	
24375	-0.273659	-1.53265	-0.492985	-0.00062326	-0.000413899	-0.000550109	-1.72888e+06	-274377	-1.828e+06	
24405	-0.273981	-1.53324	-0.493156	-0.00181619	-0.000603219	-0.00181143	-191205	-347529	-101679	
24435	-0.273652	-1.53399	-0.493155	-0.00198253	-0.000905569	-0.00189989	195811	-444684	887.592	
24495	-0.272587	-1.53594	-0.49378	-0.000859175	-0.00109186	2.55993e-10	272352	-55682.7	220585	
24525	-0.272174	-1.53614	-0.493181	-0.000826492	-0.00109854	2.64705e-05	248255	-122357	360154	
24556	-0.272841	-1.53477	-0.493799	-0.000684987	-0.00116828	0.000231758	-401473	826103	-372231	
24585	-0.272644	-1.53463	-0.493321	-0.000805429	-0.00092045	0.000120089	119058	86842.9	288989	
24615	-0.26951	-1.53171	-0.486855	-0.000755424	-0.000883976	0.000241464	1.89665e+06	1.76359e+06	3.91296e+06	
24645	-0.26951	-1.53171	-0.486855	0.00174816	0.00144396	0.00540658	1.89665e+06	1.76359e+06	3.91296e+06	
24675	-0.273724	-1.5309	-0.493248	0.00231715	0.00197304	0.00658047	-2.56401e+06	493152	-3.88924e+06	
24705	-0.274399	-1.53029	-0.495276	0.000394145	0.0023429	0.00366354	-410704	369463	-1.23515e+06	
24735	-0.274203	-1.5319	-0.494729	3.68323e-05	0.00266434	0.00258896	119307	-978843	333690	
24766	-0.274238	-1.5314	-0.494872	0.000140629	0.00181274	0.00287927	-21143.1	305976	-87592.7	
24825	-0.27426	-1.53101	-0.493971	0.000608044	-0.000768333	2.48942e-10	204004	-339850	175622	
24855	-0.275434	-1.5296	-0.495201	0.000748807	-0.00100283	0.000121179	-724095	875490	-758164	
24885	-0.274724	-1.53066	-0.494493	0.000184013	-0.000319948	-0.000470189	438971	-656334	437028	
24916	-0.274927	-1.53019	-0.494312	0.000342042	-0.000556228	-0.000312859	-126238	290945	112548	
24945	-0.274429	-1.53054	-0.493257	0.000304171	-0.000468945	-0.000279094	309721	-218824	656039	
24976	-0.274154	-1.53059	-0.494329	0.000397087	-0.000534592	-8.22826e-05	171652	-30824.3	-668120	
25005	-0.273214	-1.53207	-0.494485	0.000494929	-0.000552162	-0.000463111	586454	-925686	-97243.3	
25035	-0.273214	-1.53207	-0.494485	0.00135702	-0.00191292	-0.000606059	586454	-925686	-97243.3	
25065	-0.273178	-1.53242	-0.494221	0.00148017	-0.00210732	-0.00062648	23157.3	-219761	165581	
25095	-0.273674	-1.53214	-0.494734	0.00149476	-0.00224576	-0.000522164	-311940	174721	-322831	
25125	-0.273906	-1.53053	-0.494859	0.00123273	-0.002099	-0.000793342	-146108	1.01863e+06	-78252.7	
25155	-0.273906	-1.53053	-0.494859	0.000978504	-0.000326574	-0.000929502	-146108	1.01863e+06	-78252.7	
25185	-0.26832	-1.53209	-0.490473	0.000930288	9.57571e-06	-0.000955325	-1.14679e+06	2.70344e+06	-71031.5	
25215	-0.273464	-1.53117	-0.492437	0.000895885	9.06791e-05	-0.000957456	-104651	-602860	590456	
25275	-0.278304	-1.52666	-0.500735	-3.38283e-05	0.000540268	2.4069e-10	-3.08406e+06	2.87169e+06	-5.28764e+06	
25305	-0.306344	-1.56206	-0.531722	-0.00179174	0.00217713	-0.00301396	-1.79286e+07	-2.26341e+07	-1.98127e+07	
25335	-0.303686	-1.56563	-0.531191	-0.00770816	-0.00529213	-0.00955214	1.70469e+06	-2.28578e+06	340529	
25365	-0.30388	-1.56515	-0.531707	-0.00709447	-0.00611502	-0.00942955	-124380	307696	-331611	
25395	-0.305207	-1.56244	-0.531689	-0.00714671	-0.00598578	-0.00956883	-854979	1.74664e+06	11519.1	
25425	-0.305207	-1.56244	-0.531689	-0.00827529	-0.00368021	-0.00955362	-854979	1.74664e+06	11519.1	
25455	-0.306076	-1.56123	-0.53274	-0.00899347	-0.00221303	-0.00954395	-562119	780481	-679444	
25486	-0.306967	-1.55976	-0.532656	-0.00946565	-0.00155743	-0.0101147	-577071	950005	54293.8	
25515	-0.307186	-1.55909	-0.532809	-0.0096907	-0.00118692	-0.0100935	-142973	437306	-99484.2	
25545	-0.306346	-1.56066	-0.531979	-0.0098108	-0.000819587	-0.0101771	547458	-1.02275e+06	540757	
25576	-0.302165	-1.56098	-0.527396	-0.00933451	-0.00170938	-0.00970661	2.72873e+06	-208971	2.99096e+06	
25605	-0.301782	-1.55958	-0.526486	-0.00736983	-0.00185984	-0.00755312	250528	913559	595794	
25635	-0.300502	-1.56294	-0.525419	-0.00733225	-0.00172281	-0.00746375	840743	-2.20474e+06	700553	
25665	-0.305307	-1.56428	-0.531519	-0.00702958	-0.00251652	-0.00721155	-3.1621e+06	-879240	-4.01394e+06	
25695	-0.304063	-1.56392	-0.531409	-0.00788335	-0.00275391	-0.00829531	820702	236813	72076.1	
25725	-0.303922	-1.56397	-0.532034	-0.00751403	-0.00264735	-0.00826288	92972.2	-35212.8	-412888	
25756	-0.305787	-1.56091	-0.531782	-0.00746382	-0.00266636	-0.00848584	-1.23523e+06	2.0268e+06	166700	
25785	-0.305833	-1.56091	-0.53401	-0.00790851	-0.00193671	-0.00842583	-30745.8	4144.81	-1.47988e+06	
25815	-0.306251	-1.55988	-0.534327	-0.00792326	-0.00193472	-0.00913617	-277891	680564	-210541	
25845	-0.306251	-1.55988	-0.534327	-0.00830675	-0.000995544	-0.00942672	-277891	680564	-210541	
25875	-0.305788	-1.55999	-0.533242	-0.00832343	-0.00095471	-0.00943935	676228	-886093	-508196	
25905	-0.304802	-1.56027	-0.530083	-0.00828285	-0.00100788	-0.00946984	661378	-183966	2.11924e+06	
25935	-0.304802	-1.56027	-0.530083	-0.00764793	-0.00118448	-0.00743538	661378	-183966	2.11924e+06	
25965	-0.305509	-1.56102	-0.532388	-0.0071519	-0.00132246	-0.00584595	-475644	-510487	-1.55067e+06	
25996	-0.305872	-1.55995	-0.533583	-0.00753717	-0.00173595	-0.00710199	-244980	723666	-806133	
26025	-0.305568	-1.56029	-0.531982	-0.00774295	-0.00112807	-0.00777914	205666	-228483	1.08196e+06	
26056	-0.304205	-1.5625	-0.532065	-0.00764423	-0.00123774	-0.0072598	924266	-1.49972e+06	-56015.2	
26085	-0.301064	-1.55876	-0.524979	-0.00745014	-0.00155268	-0.00727157	2.13611e+06	2.54521e+06	4.81871e+06	
26115	-0.301064	-1.55876	-0.524979	-0.00507906	0.0012725	-0.0019228	2.13611e+06	2.54521e+06	4.81871e+06	
26145	-0.307207	-1.55877	-0.534803	-0.00488681	0.00150157	-0.00148912	-1.93605e+06	3.13665e+06	-427453	
26205	-0.30788	-1.55696	-0.535096	-0.00316615	-0.00143323	3.14233e-10	-460991	1.23871e+06	-200424	
26325	-0.307933	-1.55611	-0.532184	-0.000743915	-0.000649223	2.41869e-10	-344026	1.2723e+06	1.69753e+06	
26355	-0.308359	-1.55537	-0.532186	-0.00102258	0.00038134	0.001375	-295731	510056	-1549.34	
26385	-0.30555	-1.56002	-0.531883	-0.00127099	0.000809787	0.0013737	1.95172e+06	-3.22896e+06	210819	
26415	-0.302709	-1.55556	-0.534068	-0.000802578	3.48373e-05	0.00142429	1.98129e+06	3.11068e+06	-1.52362e+06	
26445	-0.303771	-1.55314	-0.535113	8.90038e-05	0.00143464	0.000738665	-741878	1.69187e+06	-730493	
26475	-0.301818	-1.55863	-0.535137	-0.000178072	0.00204372	0.000475687	1.36762e+06	-3.84587e+06	-16891.9	
26506	-0.301818	-1.55863	-0.535137	0.00158616	-0.00291745	0.000453897	1.36762e+06	-3.84587e+06	-16891.9	
26565	-0.302381	-1.55703	-0.537451	-0.00102586	-0.000192534	1.13487e-10	526963	-469594	-984590	
26595	-0.302381	-1.55703	-0.537451	-0.000346082	-0.00079831	-0.00127012	526963	-469594	-984590	
26655	-0.30119	-1.55529	-0.532149	0.000848836	-5.24659e-06	1.78105e-10	869348	628450	-749725	
26685	-0.304788	-1.56226	-0.532882	0.000927077	5.13139e-05	-6.74751e-05	-2.56099e+06	-4.96395e+06	-521544	
26745	-0.300914	-1.55759	-0.532067	0.000507351	9.06565e-05	2.55693e-10	2.57487e+06	3.85608e+06	888905	
26776	-0.302564	-1.55462	-0.5331	0.00127981	0.00124748	0.000266672	-1.18266e+06	2.13069e+06	-739610	
26805	-0.30338	-1.55424	-0.532175	0.000925015	0.00188669	4.47888e-05	-585983	275222	663415	
26835	-0.305657	-1.56178	-0.533949	0.000678902	0.00200228	0.000323423	-1.6376e+06	-5.42696e+06	-1.27571e+06	
26865	-0.30474	-1.56372	-0.533833	-0.000205404	-0.000928278	-0.000365459	660555	-1.3975e+06	83471.4	
26926	-0.304494	-1.56382	-0.533758	-0.000247084	0.000316669	3.69087e-10	178448	-73116.4	53995.7	
26955	-0.304851	-1.56275	-0.533327	-0.000107895	0.000259639	4.2117e-05	-259021	777484	312966	
27046	-0.3079	-1.55754	-0.534621	-0.000255715	-1.15732e-05	1.61891e-10	-685721	1.3762e+06	-846592	
27076	-0.306813	-1.55964	-0.534374	-0.000646576	0.000772861	-0.000482557	795358	-1.54374e+06	180814	
27105	-0.306813	-1.55964	-0.534374	0.000498739	-0.00145013	-0.000222184	795358	-1.54374e+06	180814	
27135	-0.302091	-1.55917	-0.524476	0.000594182	-0.00163537	-0.000200487	687355	-1.63124e+06	-98340.5	
27165	-0.303583	-1.55579	-0.525704	0.000965354	-0.00251624	-0.00025359	-1.09913e+06	2.49254e+06	-905326	
27195	-0.30359	-1.55621	-0.533923	0.000701562	-0.00191803	-0.000470869	-5420.92	-305293	-6.0746e+06	
27225	-0.303602	-1.5563	-0.534451	0.000699773	-0.00201878	-0.00247549	-8759.69	-69387.8	-390806	
27255	-0.303525	-1.55721	-0.53213	0.000697145	-0.0020396	-0.00259273	57136.9	-677969	1.7224e+06	
27285	-0.303745	-1.55827	-0.533444	0.000721143	-0.00232434	-0.00186932	-163444	-786691	-976749	
27315	-0.302758	-1.5608	-0.534876	0.00070153	-0.00241875	-0.00198653	735876	-1.88956e+06	-1.06812e+06	
27346	-0.302753	-1.55973	-0.535936	0.0010106	-0.00321236	-0.00243514	3722.17	803294	-792371	
27375	-0.302753	-1.55973	-0.535936	0.0010154	-0.00217611	-0.0034573	3722.17	803294	-792371	
27406	-0.303623	-1.55793	-0.535266	0.00101853	-0.00150134	-0.00412289	-651708	1.34436e+06	502686	
27435	-0.304478	-1.55633	-0.537276	0.000666604	-0.000775392	-0.00385144	-642750	1.20783e+06	-1.51096e+06	
27465	-0.305152	-1.55639	-0.535764	0.000203824	9.42437e-05	-0.00493933	-507544	-44882.8	1.13862e+06	
27495	-0.302169	-1.55841	-0.533946	-0.000115929	6.59675e-05	-0.004222	2.25139e+06	-1.52463e+06	1.37166e+06	
27525	-0.302255	-1.55916	-0.534121	0.00164015	-0.00112324	-0.0031521	-64739.2	-568057	-132401	
27586	-0.303063	-1.55953	-0.5358	-0.000217535	-6.15623e-06	3.47322e-10	-613453	-282477	-1.27408e+06	
27615	-0.303989	-1.55756	-0.534304	-0.000327957	-5.70021e-05	-0.000229334	78018.8	273314	357083	
27646	-0.306615	-1.55311	-0.534597	-0.00029987	4.13911e-05	-0.000100784	-2.00492e+06	3.39652e+06	-223777	
27675	-0.306619	-1.553	-0.534353	-0.00120209	0.00156982	-0.000201484	-3598.29	85147.6	186577	
27705	-0.30419	-1.55665	-0.533254	-0.00120338	0.00160048	-0.000134316	1.86324e+06	-2.7958e+06	842331	
27735	-0.30419	-1.55665	-0.533254	0.0011443	-0.00192223	0.000927021	1.86324e+06	-2.7958e+06	842331	
27765	-0.30331	-1.55654	-0.533476	0.00198276	-0.00318033	0.00130607	677355	82116.7	-170329	
27795	-0.302998	-1.55782	-0.534155	0.00240949	-0.0031286	0.00119876	240598	-990985	-524337	
27825	-0.305143	-1.55571	-0.533026	0.00261881	-0.00399076	0.000742589	-1.65703e+06	1.63073e+06	872390	
27855	-0.303772	-1.55715	-0.533282	0.00142575	-0.00281663	0.00137071	1.06175e+06	-1.10896e+06	-198052	
27915	-0.304705	-1.5562	-0.532142	-0.000636541	-5.57073e-05	2.45165e-10	-98288.2	-531252	1.05218e+06	
27945	-0.304705	-1.5562	-0.532142	-0.000813459	-0.00101196	0.00189393	-98288.2	-531252	1.05218e+06	
27975	-0.304161	-1.55591	-0.533091	-0.000845894	-0.00118727	0.00224115	-4715.62	-274853	-203008	
28005	-0.304948	-1.55433	-0.534741	-0.000847733	-0.00129447	0.00216198	-616721	1.23253e+06	-1.29262e+06	
28035	-0.303793	-1.55514	-0.535719	-0.000940242	-0.00110959	0.00196809	907610	-635281	-768894	
28065	-0.303793	-1.55514	-0.535719	1.2749e-05	-0.00177663	0.00116075	907610	-635281	-768894	
28096	-0.305802	-1.55388	-0.537111	0.000257804	-0.00194816	0.000953147	-1.58446e+06	998533	-1.09823e+06	
28125	-0.305696	-1.55399	-0.53553	-0.000787938	-0.00128913	0.000228315	83023.9	-90839	1.24883e+06	
28155	-0.306484	-1.55325	-0.535757	-0.000715707	-0.00136816	0.0013148	-622769	588289	-179471	
28185	-0.30572	-1.55468	-0.537553	-0.0011641	-0.000944589	0.00118558	605542	-1.13254e+06	-1.4245e+06	
28215	-0.30713	-1.5518	-0.53639	-0.000709945	-0.00179399	0.00011721	-1.1202e+06	2.28232e+06	924792	
28245	-0.307007	-1.55163	-0.537371	-0.00151649	-0.00015072	0.00078306	97926.7	135143	-781263	
28276	-0.304567	-1.55301	-0.536763	-0.00145773	-6.96346e-05	0.000314303	1.94784e+06	-1.09959e+06	485030	
28305	-0.306816	-1.55051	-0.544139	-0.000698074	-0.000498475	0.000503465	-1.80013e+06	2.00016e+06	-5.90423e+06	
28335	-0.316127	-1.58929	-0.543658	-0.00145413	0.000341591	-0.00197631	-7.46811e+06	-3.11004e+07	385748	
28365	-0.316084	-1.63135	-0.573929	-0.00369456	-0.00898854	-0.00186059	34575.3	-3.38209e+07	-2.43377e+07	
28395	-0.315226	-1.63174	-0.574022	-0.0036873	-0.0160909	-0.00697151	691729	-309370	-74903.2	
28455	-0.317892	-1.62959	-0.577347	0.000362469	-0.000244905	2.85237e-10	-2.15219e+06	1.72912e+06	-2.68424e+06	
28485	-0.319091	-1.62694	-0.576006	-0.00150993	0.00125943	-0.00233529	-971116	2.14641e+06	1.0861e+06	
28515	-0.318318	-1.62776	-0.577564	-0.00218	0.00274045	-0.00158588	627817	-663351	-1.26539e+06	
28546	-0.317294	-1.62985	-0.573682	-0.00174681	0.00228274	-0.00245899	833002	-1.70207e+06	3.15831e+06	
28575	-0.317294	-1.62985	-0.573682	-0.000447325	-0.000372491	0.00246797	833002	-1.70207e+06	3.15831e+06	
28605	-0.319055	-1.62753	-0.573208	-0.000297385	-0.000678864	0.00303647	-1.48182e+06	3.21237e+06	-3.90505e+06	
28635	-0.316919	-1.63113	-0.574744	-0.00123093	0.00134493	0.000576282	1.74867e+06	-2.94916e+06	-1.25741e+06	
28665	-0.317703	-1.63074	-0.57556	-0.000653866	0.000371707	0.000161336	-643924	323453	-669769	
28696	-0.314242	-1.63358	-0.574382	-0.000866361	0.000478447	-5.96877e-05	2.84778e+06	-2.33927e+06	968858	
28725	-0.312817	-1.6367	-0.572515	7.34057e-05	-0.000293511	0.000260035	1.1754e+06	-2.57021e+06	1.53958e+06	
28756	-0.312817	-1.6367	-0.572515	0.00155441	-0.00353198	0.0021999	1.1754e+06	-2.57021e+06	1.53958e+06	
28816	-0.31325	-1.63544	-0.57276	0.000456025	-0.000183527	9.19544e-11	-2.02825e+06	2.60482e+06	1.19243e+06	
28845	-0.313687	-1.63305	-0.574057	-0.000213298	0.000676064	0.000393503	-363786	1.9802e+06	-1.07868e+06	
28875	-0.313687	-1.63305	-0.574057	-0.000660755	0.00311171	-0.000933272	-363786	1.9802e+06	-1.07868e+06	
28905	-0.314994	-1.63241	-0.573883	-0.000879027	0.00429983	-0.00158048	-1.09052e+06	538180	145540	
28936	-0.313072	-1.63338	-0.573514	-0.0018605	0.00478419	-0.00144949	1.6059e+06	-809611	308546	
28965	-0.313324	-1.63494	-0.576567	-0.00055972	0.0041284	-0.00119957	-210923	-1.3057e+06	-2.55662e+06	
28996	-0.314159	-1.63308	-0.572639	-0.000730567	0.00307078	-0.00327043	-700637	1.55595e+06	3.29611e+06	
29025	-0.314658	-1.63314	-0.575038	-0.00127706	0.00428442	-0.000699467	-419339	-45111.6	-2.0171e+06	
29055	-0.314658	-1.63314	-0.575038	-0.00198155	0.00420863	-0.0040882	-419339	-45111.6	-2.0171e+06	
29085	-0.314494	-1.6356	-0.574713	-0.0021451	0.00419104	-0.00487487	138516	-2.07914e+06	274789	
29146	-0.314015	-1.63605	-0.573578	-0.000255478	-0.000980913	2.56708e-10	-348359	589452	1.11537e+06	
29175	-0.314774	-1.63471	-0.577065	-0.000380887	-0.00076871	0.000401532	328690	1.04791e+06	-1.01124e+06	
29205	-0.312345	-1.6351	-0.576981	-0.000262559	-0.000391463	3.74861e-05	2.07081e+06	-339387	71591.9	
29235	-0.312345	-1.6351	-0.576981	0.00234666	-0.00081909	0.000127692	2.07081e+06	-339387	71591.9	
29265	-0.314787	-1.62807	-0.578424	0.00358915	-0.00102272	0.000170647	-2.08909e+06	6.01493e+06	-1.23435e+06	
29295	-0.315891	-1.62733	-0.578674	0.00227302	0.00276669	-0.000606991	-945684	635457	-213854	
29326	-0.314866	-1.62949	-0.576321	0.0016205	0.00320515	-0.000754551	880244	-1.85289e+06	2.01995e+06	
29355	-0.316505	-1.62841	-0.574818	0.00222787	0.00192666	0.000639214	-1.41035e+06	925316	1.29346e+06	
29386	-0.314858	-1.6304	-0.575178	0.00121242	0.00259288	0.00157051	1.41974e+06	-1.7176e+06	-310368	
29415	-0.320191	-1.6242	-0.577739	0.00244759	0.00109857	0.00130049	-4.60517e+06	5.35425e+06	-2.21127e+06	
29445	-0.316681	-1.62783	-0.574399	-0.000315512	0.00431112	-2.62767e-05	3.03882e+06	-3.14032e+06	2.89188e+06	
29475	-0.310612	-1.63512	-0.573244	-0.000133183	0.0041227	0.000147236	5.27236e+06	-6.32978e+06	1.00276e+06	
29506	-0.313278	-1.62463	-0.569531	0.00223938	0.0012743	0.000598476	-2.31863e+06	9.12291e+06	3.22939e+06	
29535	-0.313278	-1.62463	-0.569531	-0.000821219	0.0133165	0.00486127	-2.31863e+06	9.12291e+06	3.22939e+06	
29566	-0.340467	-1.66349	-0.624452	-0.00200372	0.0179692	0.00650825	-2.37402e+07	-3.39289e+07	-4.79534e+07	
29595	-0.359414	-1.67959	-0.635046	-0.0105502	0.00575482	-0.010755	-2.82858e+07	-139700	-1.14729e+07	
29626	-0.359414	-1.67959	-0.635046	-0.0470389	0.00557461	-0.0255551	-2.82858e+07	-139700	-1.14729e+07	
29655	-0.354872	-1.68727	-0.638199	-0.0665562	0.00547821	-0.0334714	3.98789e+06	-6.74155e+06	-2.76862e+06	
29685	-0.35419	-1.6894	-0.638894	-0.0639242	0.00102879	-0.0352987	599623	-1.8751e+06	-611485	
29716	-0.350435	-1.69248	-0.63611	-0.0634744	-0.000377537	-0.0357573	3.31033e+06	-2.71523e+06	2.45409e+06	
29745	-0.358384	-1.68344	-0.633838	-0.0625807	-0.00111065	-0.0350947	-7.02845e+06	7.99276e+06	2.00939e+06	
29776	-0.356839	-1.68693	-0.63937	-0.0680628	0.0051237	-0.0335274	1.36733e+06	-3.0889e+06	-4.89609e+06	
29805	-0.356699	-1.68325	-0.637929	-0.0668733	0.00243636	-0.037787	123941	3.25945e+06	1.27747e+06	
29835	-0.355082	-1.68808	-0.635567	-0.0668398	0.00331641	-0.0374421	1.43883e+06	-4.29641e+06	2.10082e+06	
29865	-0.354219	-1.68684	-0.634648	-0.066365	0.00189859	-0.0367488	768503	1.10779e+06	819303	
29895	-0.354563	-1.68766	-0.630093	-0.0661805	0.00216446	-0.0365521	-306904	-735222	4.06876e+06	
29925	-0.356301	-1.68389	-0.632377	-0.0662818	0.00192184	-0.0352095	-1.55515e+06	3.37374e+06	-2.04435e+06	
29955	-0.356874	-1.67939	-0.629264	-0.066935	0.0033388	-0.0360681	-513482	4.03639e+06	2.79077e+06	
29986	-0.347706	-1.6949	-0.629837	-0.0670582	0.00430754	-0.0353983	8.23787e+06	-1.39393e+07	-514864	
30015	-0.347706	-1.6949	-0.629837	-0.0576671	-0.0115833	-0.0359852	8.23787e+06	-1.39393e+07	-514864	
30045	-0.373061	-1.69507	-0.660269	-0.0527243	-0.0199469	-0.0362942	-2.28568e+07	-154988	-2.74343e+07	
30075	-0.370982	-1.6931	-0.658914	-0.0726097	-0.0200817	-0.060162	1.87686e+06	1.78326e+06	1.22323e+06	
30105	-0.373036	-1.69033	-0.65928	-0.0721593	-0.0196538	-0.0598684	-1.86069e+06	2.50521e+06	-331585	
30135	-0.364866	-1.70296	-0.653643	-0.0734432	-0.0179252	-0.0600972	7.40759e+06	-1.14462e+07	5.11101e+06	
30165	-0.361752	-1.69798	-0.657109	-0.0672208	-0.0275399	-0.055804	2.82827e+06	4.52029e+06	-3.14763e+06	
30195	-0.362784	-1.6964	-0.654977	-0.0659481	-0.0255058	-0.0572204	-939490	1.43817e+06	1.94192e+06	
30225	-0.369861	-1.69731	-0.658087	-0.0662581	-0.0250312	-0.0565796	-6.46118e+06	-833357	-2.83875e+06	
30255	-0.372063	-1.6981	-0.655888	-0.0689718	-0.0253812	-0.0577718	-2.0137e+06	-717993	2.01076e+06	
30285	-0.372823	-1.69681	-0.658062	-0.0698176	-0.0256828	-0.0569273	-696440	1.18452e+06	-1.9921e+06	
30315	-0.372837	-1.6965	-0.657648	-0.0699638	-0.025434	-0.0573457	-12169.3	282996	380222	
30345	-0.37272	-1.69832	-0.656618	-0.0699697	-0.0252982	-0.0571631	107406	-1.67257e+06	947098	
30376	-0.37272	-1.69832	-0.656618	-0.0698182	-0.0276565	-0.0558277	107406	-1.67257e+06	947098	
30405	-0.372957	-1.69892	-0.658511	-0.0697699	-0.0284092	-0.0554015	-219031	-555125	-1.74816e+06	
30435	-0.377026	-1.69673	-0.65868	-0.0699604	-0.0288921	-0.0569224	-3.76171e+06	2.02273e+06	-156449	
30465	-0.376635	-1.69751	-0.661146	-0.0724432	-0.0275571	-0.0570257	362578	-722438	-2.28479e+06	
30496	-0.379267	-1.69547	-0.658187	-0.0722147	-0.0280123	-0.0584651	-2.44443e+06	1.89341e+06	2.74722e+06	
30525	-0.379267	-1.69547	-0.658187	-0.0759547	-0.0251153	-0.0542619	-2.44443e+06	1.89341e+06	2.74722e+06	
30556	-0.38267	-1.69282	-0.658346	-0.0770547	-0.0242633	-0.0530256	-3.1744e+06	2.47334e+06	-148199	
30586	-0.389854	-1.68677	-0.66028	-0.0774356	-0.0239665	-0.0530434	-3.68617e+06	5.07914e+06	-1.16469e+06	
30615	-0.376621	-1.69797	-0.666541	-0.0785415	-0.0224428	-0.0533928	1.23947e+07	-1.04911e+07	-5.86469e+06	
30675	-0.356419	-1.68074	-0.638734	5.92662e-05	6.59231e-06	8.30229e-11	1.8537e+07	1.66346e+07	3.01199e+07	
30705	-0.366064	-1.69062	-0.647987	0.00339592	0.00300082	0.00542158	-9.08982e+06	-9.31403e+06	-8.71987e+06	
30735	-0.365533	-1.69039	-0.651236	0.000396284	-7.28077e-05	0.00254402	501591	212047	-3.06704e+06	
30765	-0.365533	-1.69039	-0.651236	0.00101324	0.000188011	-0.00122843	501591	212047	-3.06704e+06	
30795	-0.370067	-1.68484	-0.650116	0.00129915	0.000308878	-0.00297665	-4.29453e+06	5.26022e+06	1.06021e+06	
30825	-0.363503	-1.69708	-0.654409	-0.00217942	0.00456966	-0.00211788	6.22612e+06	-1.1606e+07	-4.07139e+06	
30856	-0.366436	-1.69005	-0.645295	0.00136947	-0.00204574	-0.00443857	-2.78966e+06	6.68152e+06	8.66566e+06	
30885	-0.367155	-1.6889	-0.647444	-0.00105753	0.00376718	0.00310055	-684226	1.0981e+06	-2.0455e+06	
30915	-0.368182	-1.68575	-0.648059	-0.00132438	0.00419544	0.00230281	-980621	3.00921e+06	-587194	
30945	-0.366787	-1.68965	-0.648694	-0.00211869	0.0066329	0.00182718	1.33365e+06	-3.73736e+06	-607789	
30975	-0.368493	-1.68614	-0.648743	-0.00199866	0.00629654	0.00177248	-1.63623e+06	3.37271e+06	-46724	
31006	-0.368493	-1.68614	-0.648743	-0.00366762	0.0097367	0.00172482	-1.63623e+06	3.37271e+06	-46724	
31036	-0.368493	-1.68614	-0.648743	-0.00680919	0.0162123	0.00163511	-1.63623e+06	3.37271e+06	-46724	
31065	-0.368493	-1.68614	-0.648743	-0.0113743	0.0256221	0.00150475	-1.63623e+06	3.37271e+06	-46724	
31095	-0.367002	-1.68832	-0.649865	-0.0117179	0.0263304	0.00149494	1.44089e+06	-2.10477e+06	-1.08407e+06	
31125	-0.367002	-1.68832	-0.649865	-0.0101185	0.0239941	0.000291627	1.44089e+06	-2.10477e+06	-1.08407e+06	
31155	-0.371711	-1.68565	-0.655218	-0.00981592	0.0235521	6.39726e-05	-2.10529e+06	-326549	-5.97895e+06	
31185	-0.372677	-1.6863	-0.65508	-0.0111423	0.0233464	-0.00370277	-938188	-631157	134725	
31216	-0.373194	-1.68544	-0.656347	-0.0115644	0.0230624	-0.00364214	-503233	832481	-1.23385e+06	
31245	-0.370234	-1.6849	-0.650106	-0.011957	0.0237117	-0.00460454	2.8848e+06	529910	6.0823e+06	
31276	-0.369314	-1.68745	-0.648753	-0.0104857	0.023982	-0.00150257	899508	-2.49509e+06	1.32208e+06	
31305	-0.368295	-1.68634	-0.64863	-0.00986505	0.0222604	-0.000590339	996320	1.08488e+06	120846	
31365	-0.374101	-1.68142	-0.644498	-0.000484459	-0.000156762	7.09367e-11	-4.12108e+06	5.74128e+06	2.96125e+06	
31396	-0.374101	-1.68142	-0.644498	-0.00530612	0.00656054	0.00346467	-4.12108e+06	5.74128e+06	2.96125e+06	
31425	-0.367372	-1.68922	-0.650043	-0.00617154	0.00776621	0.00408653	-432577	3.08627e+06	3.56748e+06	
31456	-0.365229	-1.69335	-0.651884	-0.00622345	0.00813656	0.00451463	2.12014e+06	-4.08556e+06	-1.82148e+06	
31485	-0.365395	-1.69362	-0.652501	-0.00571462	0.00715603	0.00407747	-164735	-267968	-611049	
31516	-0.365395	-1.69362	-0.652501	-0.00590736	0.00684251	0.00336254	-164735	-267968	-611049	
31545	-0.365578	-1.69351	-0.649736	-0.0060062	0.00668172	0.00299592	-181574	104405	2.7477e+06	
31575	-0.365578	-1.69351	-0.649736	-0.00627856	0.00683833	0.00711747	-181574	104405	2.7477e+06	
31605	-0.368783	-1.68998	-0.656913	-0.00631669	0.00686026	0.00769448	-722551	1.21942e+06	-597066	
31635	-0.368004	-1.69028	-0.652654	-0.00679357	0.00766508	0.00730042	778407	-292254	4.25649e+06	
31665	-0.366562	-1.68999	-0.64839	-0.00630318	0.00748096	0.00998201	1.44344e+06	288352	4.26988e+06	
31696	-0.365557	-1.69139	-0.646672	-0.00543712	0.00765397	0.0125439	1.00903e+06	-1.40748e+06	1.72361e+06	
31725	-0.36648	-1.69103	-0.64627	-0.00458953	0.00647168	0.0139918	-927723	362303	403942	
31755	-0.36648	-1.69103	-0.64627	-0.00620377	0.00710209	0.0146946	-927723	362303	403942	
31785	-0.364569	-1.6902	-0.645351	-0.00637076	0.0071673	0.0147673	3.09163e+06	-2.20032e+06	1.54936e+06	
31815	-0.366255	-1.69196	-0.643463	-0.00581427	0.00677124	0.0150462	-1.70634e+06	-1.77873e+06	1.91028e+06	
31875	-0.36867	-1.68963	-0.645954	-0.000824517	-0.000322184	7.0126e-11	-1.05118e+06	1.27757e+06	-902902	
31906	-0.36867	-1.68963	-0.645954	-0.00211747	0.00124922	-0.00111057	-1.05118e+06	1.27757e+06	-902902	
31935	-0.370534	-1.68796	-0.649574	-0.00290585	0.0022074	-0.00178774	-1.89725e+06	1.70033e+06	-3.68687e+06	
31966	-0.366176	-1.6931	-0.655188	-0.00432879	0.00348265	-0.0045529	4.44606e+06	-5.23729e+06	-5.72681e+06	
31995	-0.368959	-1.69002	-0.652528	-0.000460713	-0.00107379	-0.00953522	-2.84431e+06	3.14406e+06	2.71724e+06	
32026	-0.367766	-1.68986	-0.651467	-0.00293526	0.00166154	-0.00717122	1.22214e+06	160187	1.08713e+06	
32055	-0.367766	-1.68986	-0.651467	-0.000808736	0.00194026	-0.00527962	1.22214e+06	160187	1.08713e+06	
32085	-0.363894	-1.69378	-0.645201	-0.000258771	0.00201235	-0.00479041	3.98198e+06	-4.02317e+06	6.44423e+06	
32116	-0.36625	-1.69018	-0.644466	0.000816363	0.000926092	-0.00305047	-510873	-83141.4	1.15496e+06	
32145	-0.365401	-1.69069	-0.646889	0.000739732	0.000913621	-0.00287722	876753	-531429	-2.50312e+06	
32175	-0.365759	-1.69108	-0.646668	0.00092385	0.000802021	-0.00340288	-369801	-396858	228641	
32205	-0.363366	-1.69021	-0.644627	0.000790722	0.000659152	-0.00332057	2.4791e+06	898420	2.11541e+06	
32236	-0.363366	-1.69021	-0.644627	0.00398876	0.00181811	-0.000591692	2.4791e+06	898420	2.11541e+06	
32265	-0.3625	-1.69263	-0.645927	0.00495561	0.0021685	0.000233317	1.76696e+06	-2.06926e+06	399417	
32296	-0.3625	-1.69263	-0.645927	0.007288	-0.000562923	0.000760548	1.76696e+06	-2.06926e+06	399417	
32325	-0.36195	-1.69036	-0.645351	0.00813614	-0.00155617	0.000952268	573611	2.36707e+06	601440	
32355	-0.363095	-1.6906	-0.645358	0.00834264	-0.000704023	0.00116879	-1.19786e+06	-252130	-7014.44	
32385	-0.366011	-1.68958	-0.645484	0.00737237	-0.000908248	0.0011631	-3.05246e+06	1.0664e+06	-132082	
32415	-0.365102	-1.69016	-0.643725	0.00563247	-0.000300398	0.00108782	953599	-600334	1.84557e+06	
32446	-0.362657	-1.69263	-0.64905	0.00637627	-0.000768658	0.00252736	2.56925e+06	-2.60223e+06	-5.59666e+06	
32475	-0.36278	-1.69237	-0.650918	0.00722413	-0.0016274	0.000680468	-129390	277773	-1.96836e+06	
32505	-0.364928	-1.68908	-0.645446	0.00718531	-0.00154406	8.99592e-05	-2.26798e+06	3.47438e+06	5.77722e+06	
32536	-0.364928	-1.68908	-0.645446	0.00439569	0.00272942	0.00719594	-2.26798e+06	3.47438e+06	5.77722e+06	
32595	-0.363559	-1.68975	-0.643301	0.000697026	0.000657022	1.26944e-10	-550825	111905	-1.02859e+06	
32625	-0.364182	-1.69222	-0.649237	0.000201283	0.000757736	-0.000925735	-661386	-2.62269e+06	-6.30559e+06	
32655	-0.364261	-1.69031	-0.651091	-0.000374122	-0.001524	-0.0064116	-84289.7	2.03762e+06	-1.97378e+06	
32686	-0.363759	-1.69054	-0.648695	-0.000422167	-0.000362555	-0.00753665	535873	-250831	2.55676e+06	
32715	-0.36308	-1.6921	-0.643736	-6.8491e-05	-0.000528103	-0.00584919	725741	-1.66555e+06	5.29986e+06	
32746	-0.364549	-1.69037	-0.64445	0.000366954	-0.00152743	-0.00266928	-1.57311e+06	1.84905e+06	-764088	
32775	-0.364528	-1.68977	-0.644178	-0.000718492	-0.000251588	-0.0031965	21703.8	650165	291215	
32806	-0.365312	-1.69101	-0.6456	-0.000704167	0.000177521	-0.0030043	-841671	-1.33771e+06	-1.52864e+06	
32835	-0.365288	-1.69001	-0.645673	-0.00113342	-0.000504709	-0.0037839	25452.5	1.0851e+06	-78639.4	
32865	-0.363156	-1.69013	-0.6456	-0.00111509	0.000276566	-0.00384052	2.29966e+06	-131183	78649.3	
32925	-0.360713	-1.69744	-0.650376	0.000420683	0.000592162	2.3837e-10	2.64259e+06	-7.90695e+06	-5.16616e+06	
32956	-0.363137	-1.69334	-0.641351	0.00129274	-0.00201713	-0.00170483	-1.15495e+06	-2.80041e+06	3.64198e+06	
32985	-0.364782	-1.68982	-0.640236	0.00118879	-0.00226917	-0.00137705	-1.78919e+06	3.83034e+06	1.21324e+06	
33016	-0.364782	-1.68982	-0.640236	-0.000636184	0.00163778	-0.000139545	-1.78919e+06	3.83034e+06	1.21324e+06	
33045	-0.369482	-1.69048	-0.641698	-0.00101191	0.00244216	0.000115236	-5.13021e+06	-717886	-1.59583e+06	
33076	-0.367905	-1.6888	-0.639743	-0.00332051	0.00211911	-0.000602886	1.72402e+06	1.83702e+06	2.1362e+06	
33105	-0.367015	-1.69133	-0.63626	-0.0025447	0.00294576	0.000358402	974830	-2.7674e+06	3.81376e+06	
33136	-0.365837	-1.68947	-0.6413	-0.00190131	0.00111928	0.00287549	1.29173e+06	2.03511e+06	-5.52679e+06	
33165	-0.367906	-1.6896	-0.641573	-0.00135879	0.00197403	0.000554232	-2.27445e+06	-141859	-299992	
33195	-0.36768	-1.6913	-0.640154	-0.00326932	0.00185486	0.000302239	249287	-1.87115e+06	1.56103e+06	
33226	-0.36747	-1.69302	-0.63791	-0.00316462	0.00106898	0.000957873	231036	-1.89431e+06	2.4756e+06	
33315	-0.369627	-1.69359	-0.640474	-0.000395711	-0.00012021	7.11523e-11	-948123	-2.28461e+06	4.75284e+06	
33345	-0.367029	-1.69498	-0.638759	-0.000651704	-0.000737055	0.00128327	2.88637e+06	-1.54397e+06	1.90683e+06	
33375	-0.367029	-1.69498	-0.638759	0.00272535	-0.00254349	0.00351425	2.88637e+06	-1.54397e+06	1.90683e+06	
33405	-0.368605	-1.69427	-0.64438	0.00523649	-0.00388675	0.00517319	-1.75459e+06	782862	-6.26155e+06	
33436	-0.368657	-1.69538	-0.643586	0.00360472	-0.00315868	-0.000650052	-59081.8	-1.22986e+06	885032	
33465	-0.36837	-1.6963	-0.644939	0.00357814	-0.00371212	-0.000251788	322205	-1.03602e+06	-1.51354e+06	
33495	-0.368583	-1.69557	-0.64349	0.00371346	-0.00414725	-0.000887475	-239544	819116	1.62502e+06	
33526	-0.368583	-1.69557	-0.643489	0.00339726	-0.00306601	0.00125756	-239544	819116	1.62502e+06	
33555	-0.368066	-1.69662	-0.64221	0.0033254	-0.00282028	0.00174507	581711	-1.17857e+06	1.43941e+06	
33585	-0.366023	-1.69858	-0.637783	0.00346501	-0.00310313	0.00209052	3.49735e+06	-3.68062e+06	1.63336e+06	
33616	-0.364705	-1.70153	-0.634075	0.00556342	-0.00531151	0.00307054	1.48709e+06	-3.33623e+06	4.18432e+06	
33645	-0.367299	-1.6986	-0.634187	0.00569726	-0.00561177	0.00344713	-2.93565e+06	3.32238e+06	-126856	
33675	-0.370929	-1.69103	-0.644964	0.0049927	-0.0048144	0.00341668	-4.11477e+06	8.57251e+06	-1.22145e+07	
33705	-0.370929	-1.69103	-0.644964	0.000301868	0.00495826	-0.0105079	-4.11477e+06	8.57251e+06	-1.22145e+07	
33735	-0.371873	-1.69139	-0.646477	-0.000685676	0.00701566	-0.0134393	-1.43195e+06	-959383	-2.80039e+06	
33795	-0.371259	-1.69011	-0.645473	0.000358906	-0.0002328	2.34897e-10	699856	1.4571e+06	1.14463e+06	
33826	-0.371422	-1.69131	-0.645702	0.000652845	0.000379181	0.000480747	-185663	-1.36861e+06	-262777	
33855	-0.366402	-1.6918	-0.643943	0.000524737	-0.000565161	0.000299431	5.74577e+06	-559221	2.01367e+06	
33886	-0.365737	-1.69318	-0.642806	0.00311033	-0.00081681	0.00120558	762797	-1.57832e+06	1.30469e+06	
33915	-0.365088	-1.69891	-0.636406	0.00354513	-0.00171645	0.00194925	746107	-6.58263e+06	7.35326e+06	
33946	-0.369267	-1.69519	-0.641852	0.00410471	-0.00665342	0.0074642	-4.8084e+06	4.28066e+06	-6.267e+06	
33975	-0.367437	-1.70023	-0.639358	0.00107542	-0.00395661	0.00351599	2.10931e+06	-5.82073e+06	2.87547e+06	
34005	-0.367437	-1.70023	-0.639358	0.00430265	-0.0128623	0.00791546	2.10931e+06	-5.82073e+06	2.87547e+06	
34036	-0.369278	-1.69598	-0.640865	0.005062	-0.0149578	0.00895063	-2.13087e+06	4.91972e+06	-1.74387e+06	
34065	-0.366863	-1.69321	-0.639921	0.00467845	-0.0140722	0.00863673	918701	3.53123e+06	4.16021e+06	
34095	-0.366863	-1.69321	-0.639921	0.00567064	-0.0102585	0.0131298	918701	3.53123e+06	4.16021e+06	
34126	-0.365369	-1.69085	-0.639607	0.00591869	-0.00930508	0.014253	899881	294856	1.67526e+06	
34186	-0.368504	-1.69158	-0.640937	-0.000854288	-0.000739991	2.64607e-10	-3.65639e+06	-854449	-1.55145e+06	
34215	-0.367527	-1.69624	-0.640487	-0.00304812	-0.00125266	-0.000930867	1.142e+06	-5.44061e+06	525766	
34245	-0.368745	-1.69325	-0.641083	-0.00277404	-0.00255841	-0.000804683	-1.4273e+06	3.50077e+06	-698560	
34275	-0.366927	-1.69629	-0.640054	-0.00371607	-0.0002479	-0.00126573	2.13282e+06	-3.56676e+06	1.20753e+06	
34305	-0.366259	-1.69812	-0.639817	-0.00326817	-0.00099692	-0.00101215	785684	-2.14906e+06	278547	
34335	-0.364823	-1.69895	-0.638526	-0.00274962	-0.0024153	-0.00082831	1.69076e+06	-982484	1.52044e+06	
34365	-0.364564	-1.70004	-0.646003	-0.00198878	-0.00285742	-0.000144113	304722	-1.28328e+06	-8.82193e+06	
34395	-0.365766	-1.69691	-0.647457	-0.00190651	-0.0032039	-0.00252603	-1.42123e+06	3.70375e+06	-1.71929e+06	
34426	-0.369249	-1.69633	-0.641426	-0.00207705	-0.00275945	-0.00273235	-4.12668e+06	688765	7.14513e+06	
34455	-0.367568	-1.69554	-0.64049	-0.00343886	-0.00253216	-0.000374455	1.99456e+06	928567	1.11055e+06	
34486	-0.367568	-1.69554	-0.64049	-0.000925717	-0.00136217	0.00102483	1.99456e+06	928567	1.11055e+06	
34515	-0.367568	-1.69554	-0.64049	0.00332269	0.000615683	0.0033903	1.99456e+06	928567	1.11055e+06	
34546	-0.369354	-1.69241	-0.638121	0.00386122	0.000866396	0.00369014	1.2721e+06	-2.3673e+06	3.41786e+06	
34575	-0.373856	-1.69132	-0.651013	0.00473897	-0.000767039	0.00604847	-5.37449e+06	1.29909e+06	-1.53906e+07	
34605	-0.377169	-1.68786	-0.651941	0.00232045	-0.00018245	-0.000877315	-3.96347e+06	4.13872e+06	-1.11073e+06	
34635	-0.377896	-1.68705	-0.648996	-0.000414346	0.00267327	-0.00164372	-871123	969334	3.52795e+06	
34665	-0.375727	-1.68828	-0.650391	-0.000884752	0.00319671	0.000261372	2.60331e+06	-1.47148e+06	-1.67411e+06	
34696	-0.374344	-1.68631	-0.64183	-0.000181858	0.00279941	-0.000190637	1.66394e+06	2.3628e+06	1.03008e+07	
34725	-0.37197	-1.69202	-0.648065	0.000916344	0.00435886	0.00660791	2.85924e+06	-6.87692e+06	-7.50893e+06	
34756	-0.370123	-1.69286	-0.639232	0.00323233	-0.00121144	0.000525671	2.22787e+06	-1.01319e+06	1.06537e+07	
34815	-0.36904	-1.69229	-0.636523	0.00032437	-0.000636556	6.91357e-11	-840056	-770463	1.26182e+06	
34876	-0.368356	-1.69474	-0.63775	0.000705442	0.000733568	7.66796e-11	-154820	-789472	-1.76844e+06	
34905	-0.36727	-1.69694	-0.638937	0.000658996	0.000496727	-0.000530532	1.32141e+06	-2.67723e+06	-1.44567e+06	
34936	-0.36727	-1.69694	-0.638937	0.00228433	-0.00279627	-0.0023087	1.32141e+06	-2.67723e+06	-1.44567e+06	
34965	-0.366138	-1.69619	-0.639706	0.00311681	-0.00448292	-0.00321947	1.38318e+06	919558	-939175	
34995	-0.366138	-1.69619	-0.639706	0.00523307	-0.003076	-0.00465641	1.38318e+06	919558	-939175	
35025	-0.370035	-1.69497	-0.644732	0.00531606	-0.00302082	-0.00471276	-3.27038e+06	1.65689e+06	-5.75223e+06	
35056	-0.36999	-1.69401	-0.646248	0.00374628	-0.00222552	-0.00747384	54772.7	1.18647e+06	-1.8617e+06	
35085	-0.373759	-1.69051	-0.650525	0.00376271	-0.00186957	-0.00803234	-4.63654e+06	4.30074e+06	-5.2617e+06	
35115	-0.374022	-1.68907	-0.645954	0.00306723	-0.00122446	-0.0088216	-323952	1.7827e+06	5.6343e+06	
35145	-0.372279	-1.6917	-0.648238	0.00297004	-0.000689653	-0.00713131	2.15121e+06	-3.25661e+06	-2.81904e+06	
35205	-0.372776	-1.69276	-0.643511	3.83964e-05	-0.00013705	3.21422e-10	-614910	-1.30465e+06	5.84714e+06	
35235	-0.371441	-1.69229	-0.638079	-0.000127629	-0.000489305	0.00157873	3.12589e+06	-4.13492e+06	2.88248e+06	
35265	-0.37018	-1.69137	-0.641615	0.000435031	-0.00123359	0.00209757	1.5676e+06	1.14856e+06	-4.39658e+06	
35295	-0.37018	-1.69137	-0.641615	0.00212804	6.84831e-06	-0.00265073	1.5676e+06	1.14856e+06	-4.39658e+06	
35326	-0.369803	-1.6916	-0.63906	0.00292751	0.000592611	-0.00489299	470044	-283542	3.1856e+06	
35355	-0.369212	-1.69058	-0.637975	0.00316723	0.000448005	-0.00326833	737786	1.26605e+06	1.35572e+06	
35385	-0.369476	-1.69338	-0.641284	0.00360991	0.00120764	-0.0024549	-330160	-3.49134e+06	-4.13955e+06	
35415	-0.371296	-1.68887	-0.638321	0.00344152	-0.000572946	-0.00456607	-2.28063e+06	5.64414e+06	3.71363e+06	
35445	-0.37569	-1.68225	-0.640776	0.00200473	0.00298286	-0.00222648	-5.51263e+06	8.3051e+06	-3.08157e+06	
35476	-0.37569	-1.68225	-0.640776	-0.00659498	0.0159388	-0.00703373	-5.51263e+06	8.3051e+06	-3.08157e+06	
35505	-0.371365	-1.6883	-0.640953	-0.00891028	0.019427	-0.00832799	5.44705e+06	-7.61438e+06	-222597	
35536	-0.371594	-1.6888	-0.638658	-0.00760299	0.0175995	-0.00838142	623307	-1.99703e+06	-318457	
35596	-0.36965	-1.69243	-0.639938	-0.00084356	-0.000584951	8.73174e-11	1.30473e+06	-2.51498e+06	18105.7	
35625	-0.369688	-1.69235	-0.639912	-0.000804418	-0.0006604	5.43259e-07	-48281.1	96916.9	33389	
35655	-0.369688	-1.69235	-0.639912	-0.000849319	-0.000570268	3.15951e-05	-48281.1	96916.9	33389	
35685	-0.371784	-1.68935	-0.641434	-0.000878288	-0.000512118	5.16285e-05	-2.66564e+06	3.81121e+06	-1.93593e+06	
35715	-0.369261	-1.69052	-0.640821	-0.00223776	0.0014316	-0.000935696	3.21506e+06	-1.48235e+06	781052	
35746	-0.370806	-1.69038	-0.637649	-0.000115824	0.000453248	-0.000420202	-1.97176e+06	181136	4.04817e+06	
35775	-0.371129	-1.68959	-0.639531	-0.000825656	0.000518457	0.00103714	-413331	1.00748e+06	-2.40798e+06	
35805	-0.371206	-1.69276	-0.642679	-0.000962056	0.000850925	0.000242506	-98649.5	-4.06124e+06	-4.03231e+06	
35865	-0.36565	-1.69475	-0.641346	-0.000283517	-0.000925972	8.52732e-11	5.86114e+06	-4.13502e+06	-1.48869e+06	
35895	-0.3653	-1.6935	-0.640102	0.00376067	-0.00377913	-0.0010272	450129	1.61716e+06	1.60104e+06	
35955	-0.365325	-1.69347	-0.639574	0.00029252	0.000559461	2.47829e-10	-31760.3	37259	680758	
36075	-0.364806	-1.69134	-0.640794	-0.000390264	-3.16583e-05	4.18401e-11	-129325	301486	-6543.5	
36105	-0.364806	-1.69134	-0.640794	-0.000522176	0.000275857	-6.67433e-06	-129325	301486	-6543.5	
36136	-0.364585	-1.69271	-0.640763	-0.000557093	0.000357258	-8.44108e-06	288566	-1.78634e+06	40659.3	
36165	-0.364423	-1.6909	-0.639572	-0.000357983	-0.000875313	1.96139e-05	211221	2.36713e+06	1.55504e+06	
36196	-0.365564	-1.68812	-0.639966	-0.000224914	0.000615981	0.000999286	-1.49212e+06	3.63799e+06	-514620	
36225	-0.365566	-1.68816	-0.640611	-0.00120972	0.00301705	0.000659637	-2990.58	-53952.5	-846090	
36256	-0.367792	-1.6918	-0.639759	-0.00121043	0.00300411	0.000456575	-2.92451e+06	-4.7912e+06	1.11961e+06	
36285	-0.367792	-1.6918	-0.639759	-0.00445664	-0.00231413	0.00169934	-2.92451e+06	-4.7912e+06	1.11961e+06	
36315	-0.366695	-1.69094	-0.637515	-0.00542172	-0.00389522	0.00206881	25132.3	892858	2.47776e+06	
36345	-0.366695	-1.69094	-0.637515	-0.00539081	-0.00279701	0.00511645	25132.3	892858	2.47776e+06	
36375	-0.366553	-1.68892	-0.639684	-0.0053697	-0.00204701	0.00719777	187386	2.66474e+06	-2.86542e+06	
36405	-0.36622	-1.68921	-0.636223	-0.00520667	0.000271321	0.00470486	441454	-382518	4.57869e+06	
36435	-0.368362	-1.68978	-0.639746	-0.00483585	-4.99943e-05	0.00855096	-2.84035e+06	-757946	-4.66927e+06	
36465	-0.368362	-1.68978	-0.639746	-0.00977807	-0.00136882	0.000426433	-2.84035e+06	-757946	-4.66927e+06	
36495	-0.36903	-1.69063	-0.645656	-0.0102893	-0.00150525	-0.000414035	-524461	6.11621e+06	5.39707e+06	
36526	-0.366824	-1.69173	-0.644733	-0.0105725	0.0017975	0.00250038	2.93970e+06	-1.47243e+06	1.23031e+06	
36555	-0.36664	-1.69179	-0.644471	-0.0102198	0.00162081	0.00264802	245610	-78635	348943	
36585	-0.364957	-1.69477	-0.645349	-0.0100945	0.00158071	0.00282598	2.25059e+06	-3.97924e+06	-1.17321e+06	
36616	-0.36379	-1.69486	-0.648989	-0.00914926	-9.05754e-05	0.00233323	1.5639e+06	-128513	-4.87688e+06	
36645	-0.367045	-1.68713	-0.64742	-0.00886776	-0.000113708	0.00145539	-4.36965e+06	1.03746e+07	2.10669e+06	
36735	-0.36614	-1.6862	-0.646983	-0.00047942	-0.000401817	3.06939e-10	2.13806e+06	-598409	4.19752e+06	
36765	-0.367949	-1.68546	-0.652339	0.00118826	-0.000868576	0.00327406	-2.44193e+06	998354	-7.22952e+06	
36795	-0.371123	-1.6811	-0.644229	0.00104175	-0.000808675	0.00284029	-517540	314180	5.72408e+06	
36826	-0.371123	-1.6811	-0.644229	0.000529384	-0.000497637	0.00850713	-517540	314180	5.72408e+06	
36855	-0.370625	-1.6807	-0.643262	0.000312018	-0.000365681	0.0109112	676360	542529	1.31252e+06	
36885	-0.372297	-1.68091	-0.644269	0.000535216	-0.000186647	0.0113444	-2.2735e+06	-277829	-1.3699e+06	
36916	-0.368035	-1.68821	-0.640554	-0.0010335	-0.000378349	0.0103991	5.79995e+06	-9.93989e+06	5.05659e+06	
36945	-0.368035	-1.68821	-0.640554	0.00801442	-0.0158846	0.0182874	5.79995e+06	-9.93989e+06	5.05659e+06	
36975	-0.368035	-1.68821	-0.640554	0.0222823	-0.0403367	0.0307266	5.79995e+06	-9.93989e+06	5.05659e+06	
37006	-0.366725	-1.68981	-0.643177	0.0240223	-0.0433187	0.0322436	7.8349e+06	-1.31389e+07	1.04989e+07	
37035	-0.369806	-1.68922	-0.642842	0.0298985	-0.0531729	0.0401178	-4.22087e+06	810561	459305	
37065	-0.368525	-1.68708	-0.644678	0.0292653	-0.0530513	0.0401867	325344	-744447	-1.60363e+06	
37125	-0.368276	-1.68694	-0.644414	0.000163086	-0.000527852	1.78176e-10	342852	191687	362424	
37155	-0.36834	-1.68619	-0.642956	0.000451081	-0.000366835	0.000304436	-88129.3	1.02597e+06	2.00952e+06	
37185	-0.367411	-1.68693	-0.643328	0.000374409	0.00052576	0.00205271	1.28338e+06	-1.01755e+06	-513337	
37216	-0.367202	-1.68559	-0.641487	0.00149095	-0.000359505	0.00160611	287637	1.85808e+06	2.54643e+06	
37245	-0.366877	-1.68564	-0.64155	0.00163764	0.000588117	0.00290479	451082	-72797.9	-88028.6	
37276	-0.367777	-1.68474	-0.642006	0.00186769	0.000550991	0.0028599	-1.24926e+06	1.2435e+06	-632289	
37305	-0.369963	-1.68456	-0.643722	0.00153039	0.000886737	0.00268918	-3.04074e+06	259870	-2.38773e+06	
37335	-0.36727	-1.68601	-0.643852	-0.000567718	0.00106605	0.00104164	3.7493e+06	-2.02162e+06	-180483	
37365	-0.36727	-1.68601	-0.643852	0.00539367	-0.00214833	0.000754675	3.7493e+06	-2.02162e+06	-180483	
37395	-0.36727	-1.68601	-0.643852	0.0147294	-0.00718215	0.000305272	3.7493e+06	-2.02162e+06	-180483	
37426	-0.369856	-1.68448	-0.643788	0.0160792	-0.00790994	0.000240298	-407821	2.9111e+06	2.40045e+06	
37455	-0.367349	-1.68864	-0.641716	0.01581	-0.00598861	0.0018246	3.51272e+06	-5.82394e+06	2.90388e+06	
37486	-0.366374	-1.68907	-0.640493	0.0163369	-0.0068622	0.00226018	1.12449e+06	-2.23021e+06	1.83862e+06	
37515	-0.361979	-1.69554	-0.6484	0.0166068	-0.00739745	0.00270145	6.18331e+06	-9.10090e+06	-1.11227e+07	
37605	-0.364389	-1.70938	-0.639572	0.000505445	-0.00113153	2.62976e-10	-2.98856e+06	-2.51277e+07	2.12654e+06	
37635	-0.365775	-1.70856	-0.637144	-0.00155666	-0.0184697	0.00146731	-1.96094e+06	1.15071e+06	3.43388e+06	
37666	-0.365661	-1.70838	-0.638065	-0.00296854	-0.0176411	0.00393971	161817	258907	-1.30483e+06	
37695	-0.368629	-1.70492	-0.63835	-0.00288116	-0.0175013	0.0032351	-4.21365e+06	4.91755e+06	-403825	
37725	-0.365367	-1.70636	-0.639318	-0.00540935	-0.0145508	0.00299281	4.63728e+06	-2.05463e+06	-1.37719e+06	
37756	-0.366373	-1.70639	-0.640322	-0.00318345	-0.015537	0.00233175	-1.43205e+06	-40325.3	-1.43002e+06	
37785	-0.366373	-1.70639	-0.640322	-0.00511671	-0.0155915	0.000401224	-1.43205e+06	-40325.3	-1.43002e+06	
37816	-0.365822	-1.70524	-0.64093	-0.00537448	-0.0155987	0.00014382	-849110	-22634.1	-1.4376e+06	
37845	-0.367507	-1.7057	-0.64264	-0.00542543	-0.0156001	5.75638e-05	-2.41307e+06	-658601	-2.44848e+06	
37876	-0.367507	-1.7057	-0.64264	-0.00781437	-0.0162521	-0.00236643	-2.41307e+06	-658601	-2.44848e+06	
37905	-0.366749	-1.70489	-0.64313	-0.00947939	-0.0167065	-0.00405588	1.08737e+06	1.16168e+06	-702393	
37936	-0.369889	-1.70501	-0.644746	-0.00921842	-0.0164277	-0.00422446	-4.51615e+06	-170138	-2.32519e+06	
37965	-0.368327	-1.7038	-0.640405	-0.0121991	-0.01654	-0.00575909	2.24922e+06	1.74277e+06	6.24899e+06	
37995	-0.371605	-1.69849	-0.644932	-0.0103772	-0.0151284	-0.000697402	-4.72536e+06	7.65477e+06	-6.52474e+06	
38025	-0.37368	-1.69722	-0.645796	-0.0132124	-0.0105355	-0.00461224	-2.99697e+06	1.83106e+06	-1.24894e+06	
38055	-0.372839	-1.69932	-0.645171	-0.0154602	-0.00916221	-0.00554895	1.21593e+06	-3.03496e+06	904143	
38085	-0.364908	-1.7071	-0.642307	-0.01484	-0.01071	-0.00508783	1.14928e+07	-1.12679e+07	4.15097e+06	
38115	-0.37051	-1.70174	-0.641328	-0.00794434	-0.0174708	-0.00259725	-8.12944e+06	7.77067e+06	1.42042e+06	
38145	-0.37051	-1.70174	-0.641328	-0.0201385	-0.00581479	-0.000466611	-8.12944e+06	7.77067e+06	1.42042e+06	
38175	-0.369978	-1.7027	-0.640864	-0.0257478	-0.00045303	0.000513482	774392	-1.39546e+06	675433	
38206	-0.363796	-1.70662	-0.642022	-0.0255155	-0.000871669	0.000716112	7.11398e+06	-5.91187e+06	-1.05533e+06	
38235	-0.365785	-1.70737	-0.643803	-0.0244484	-0.00175845	0.000557812	-2.90767e+06	-1.09437e+06	-2.60288e+06	
38265	-0.366296	-1.70559	-0.643993	-0.0247973	-0.00188977	0.000245467	-747159	2.6013e+06	-277922	
38295	-0.366296	-1.70559	-0.643993	-0.0255594	0.000763556	-3.8014e-05	-747159	2.6013e+06	-277922	
38326	-0.364693	-1.70704	-0.642308	-0.0256715	0.00115375	-7.97023e-05	1.95361e+06	-2.17456e+06	1.47856e+06	
38355	-0.364693	-1.70704	-0.642308	-0.0236788	-0.0010643	0.00142843	1.95361e+06	-2.17456e+06	1.47856e+06	
38386	-0.366661	-1.70597	-0.642862	-0.0229169	-0.00191237	0.00200507	-2.89768e+06	1.58282e+06	-816714	
38415	-0.366661	-1.70597	-0.642862	-0.026568	8.19836e-05	0.000976011	-2.89768e+06	1.58282e+06	-816714	
38445	-0.367392	-1.70383	-0.653158	-0.0274373	0.000556831	0.000730997	-1.07945e+06	3.16185e+06	-1.52099e+07	
38475	-0.37019	-1.70389	-0.641897	-0.0277611	0.00150539	-0.00383197	-3.72066e+06	1.88503e+06	3.69468e+06	
38535	-0.368542	-1.69915	-0.644903	0.000857883	-5.97844e-05	1.04486e-10	-419968	3.0762e+06	-4.26276e+06	
38565	-0.368542	-1.69915	-0.644903	0.000278327	0.00418537	-0.00588261	-419968	3.0762e+06	-4.26276e+06	
38625	-0.369132	-1.7002	-0.645902	6.56503e-05	-0.000905482	1.97968e-10	-1.18715e+06	-1.52937e+06	-937859	
38656	-0.373639	-1.70103	-0.649929	-0.000219265	-0.00127253	-0.000225086	-5.16173e+06	3.81965e+06	-8.44181e+06	
38716	-0.372669	-1.70082	-0.647732	-0.000928484	0.000406009	2.41338e-10	1.45166e+06	311905	3.28748e+06	
38745	-0.372671	-1.70518	-0.650842	-0.000362338	0.000527652	0.00128212	-3527.78	-6.53638e+06	-4.66589e+06	
38775	-0.370978	-1.70578	-0.646904	-0.000364455	-0.00339418	-0.00151742	2.54316e+06	-905583	5.91427e+06	
38806	-0.364568	-1.71108	-0.647577	0.000398493	-0.00366585	0.000256864	9.64724e+06	-7.9749e+06	-1.01172e+06	
38835	-0.365717	-1.70825	-0.646636	0.0073445	-0.00940778	-0.000471575	-1.73048e+06	4.26184e+06	1.41715e+06	
38865	-0.366913	-1.70717	-0.648058	0.00630621	-0.00685067	0.000378717	-1.80459e+06	1.62847e+06	-2.14604e+06	
38895	-0.366913	-1.70717	-0.648058	0.00359933	-0.00440797	-0.00284034	-1.80459e+06	1.62847e+06	-2.14604e+06	
38955	-0.369131	-1.70532	-0.648831	-0.00014349	-0.000700743	1.10477e-10	492737	3.13945e+06	-1.12741e+06	
39015	-0.368472	-1.7071	-0.644834	-0.00102983	-0.000159271	7.71089e-11	1.43987e+06	-3.1667e+06	1.38538e+06	
39046	-0.371433	-1.7045	-0.648882	-0.00077065	-0.000729277	0.000249368	-4.51324e+06	3.96679e+06	-6.17006e+06	
39075	-0.370282	-1.70586	-0.652451	-0.00117684	-0.000372266	-0.000305937	1.7571e+06	-2.07722e+06	-5.44889e+06	
39105	-0.370282	-1.70586	-0.652451	0.00056269	-0.00242871	-0.00570034	1.7571e+06	-2.07722e+06	-5.44889e+06	
39135	-0.371197	-1.7035	-0.653768	0.000773542	-0.00267798	-0.0063542	-1.40215e+06	3.60683e+06	-2.01675e+06	
39165	-0.370132	-1.70172	-0.652497	-2.56843e-05	-0.000622085	-0.00750375	1.63257e+06	2.73103e+06	1.94887e+06	
39195	-0.36776	-1.70583	-0.646933	0.000806928	0.000770739	-0.00650983	3.64169e+06	-6.31868e+06	8.54027e+06	
39225	-0.365801	-1.70788	-0.646911	0.00222719	-0.00169355	-0.00317912	3.01082e+06	-3.14922e+06	32935.6	
39256	-0.367102	-1.70831	-0.65218	0.0037627	-0.00329965	-0.00316233	-2.00253e+06	-659300	-8.11184e+06	
39285	-0.367093	-1.70775	-0.654089	0.00286157	-0.00359633	-0.00681265	13680	864032	-2.94476e+06	
39315	-0.367093	-1.70775	-0.654089	0.00288004	-0.00242989	-0.0107881	13680	864032	-2.94476e+06	
39345	-0.36811	-1.71198	-0.647511	0.00289153	-0.0017041	-0.0132617	-1.572e+06	-6.53751e+06	1.01685e+07	
39375	-0.368581	-1.70946	-0.652483	0.00152388	-0.00739174	-0.0044151	-729364	3.9084e+06	-7.69713e+06	
39405	-0.370772	-1.70725	-0.65387	0.00148012	-0.00715723	-0.00487692	-3.40215e+06	3.43013e+06	-2.15297e+06	
39435	-0.352867	-1.72835	-0.654075	-5.08444e-05	-0.00561368	-0.00584576	2.78241e+07	-3.27893e+07	-317736	
39465	-0.363928	-1.7143	-0.649479	0.00412278	-0.0105321	-0.00589342	-1.4586e+07	2.24516e+07	1.28684e+07	
39495	-0.363928	-1.7143	-0.649479	-0.0111925	0.0130421	0.00761838	-1.4586e+07	2.24516e+07	1.28684e+07	
39526	-0.385768	-1.72763	-0.68929	-0.0164435	0.0211247	0.012251	-3.40999e+07	-2.08234e+07	-6.21585e+07	
39555	-0.393309	-1.72165	-0.68983	-0.0379264	0.00800593	-0.0269089	-1.17859e+07	9.34873e+06	-843883	
39585	-0.394552	-1.72192	-0.68968	-0.0421694	0.0113715	-0.0272127	-1.94728e+06	-423249	234522	
39615	-0.410434	-1.70289	-0.693714	-0.0434546	0.0110921	-0.0270579	-2.48967e+07	2.98317e+07	-6.32376e+06	
39645	-0.388394	-1.72987	-0.696813	-0.0583926	0.0289911	-0.0308521	3.46066e+07	-4.23549e+07	-4.86576e+06	
39676	-0.392888	-1.72478	-0.690239	-0.039705	0.00611951	-0.0334796	-7.06801e+06	7.99428e+06	1.03392e+07	
39705	-0.392888	-1.72478	-0.690239	-0.0496709	0.0173914	-0.0189014	-7.06801e+06	7.99428e+06	1.03392e+07	
39765	-0.393878	-1.72351	-0.690944	6.08214e-10	4.25288e-10	3.98047e-10	-45650.2	-3.39737e+06	2.3358e+06	
39826	-0.392697	-1.72104	-0.692188	-6.34055e-05	-0.000622629	3.18652e-10	-2.73595e+06	9.73138e+06	-932601	
39855	-0.393041	-1.71741	-0.692419	-0.00178705	0.00550814	-0.000587539	-545225	5.75948e+06	-366340	
39885	-0.393041	-1.71741	-0.692419	-0.00262124	0.0143201	-0.00114804	-545225	5.75948e+06	-366340	
39915	-0.393552	-1.717	-0.690668	-0.0028666	0.0169119	-0.00131289	1.799e+06	7.02432e+06	3.16907e+06	
39945	-0.393412	-1.71681	-0.689933	-0.00216498	0.0196514	-7.6955e-05	223352	313643	1.1723e+06	
39976	-0.393546	-1.71779	-0.690577	-0.00202427	0.019849	0.000661595	-214392	-1.56646e+06	-1.02877e+06	
40005	-0.393703	-1.71674	-0.690916	-0.00211432	0.0191911	0.000229513	-251418	1.68397e+06	-542307	
40036	-0.394608	-1.71274	-0.691048	-0.00226517	0.0202014	-9.58715e-05	-1.44925e+06	6.3995e+06	-210424	
40066	-0.392656	-1.71874	-0.690655	-0.00269994	0.0221213	-0.000158999	3.13203e+06	-9.62712e+06	630292	
40095	-0.392656	-1.71874	-0.690655	0.000964536	0.0108576	0.000578443	3.13203e+06	-9.62712e+06	630292	
40125	-0.392656	-1.71874	-0.690655	0.00744785	-0.00907057	0.00188315	3.13203e+06	-9.62712e+06	630292	
40156	-0.393288	-1.71657	-0.690067	0.0100788	-0.0171574	0.00241259	-1.01732e+06	3.49915e+06	946318	
40185	-0.391608	-1.71593	-0.692392	0.0099872	-0.0168424	0.00249776	2.71276e+06	1.02222e+06	-3.75318e+06	
40216	-0.394422	-1.71388	-0.691268	0.0102313	-0.0167504	0.00215998	-1.13065e+06	4.28646e+06	-1.56755e+06	
40245	-0.394422	-1.71388	-0.691268	0.00914592	-0.0126354	0.000655129	-1.13065e+06	4.28646e+06	-1.56755e+06	
40276	-0.3904	-1.72031	-0.692886	0.00877281	-0.0112209	0.000137837	6.52212e+06	-1.04318e+07	-2.62395e+06	
40305	-0.392638	-1.71338	-0.693652	0.0119034	-0.0162282	-0.00112166	-3.63336e+06	1.1253e+07	-1.24317e+06	
40335	-0.395449	-1.70605	-0.693077	0.0102684	-0.0111643	-0.00168108	-4.56972e+06	1.19186e+07	934549	
40366	-0.39716	-1.7106	-0.6868	0.00738949	-0.00365557	-0.00109232	-2.78576e+06	-7.4089e+06	1.02174e+07	
40395	-0.39716	-1.7106	-0.6868	0.00312727	-0.0149912	0.0145403	-2.78576e+06	-7.4089e+06	1.02174e+07	
40455	-0.401028	-1.71138	-0.697091	-0.0012785	0.000224629	2.11567e-10	562533	-2.3874e+06	7.87272e+06	
40485	-0.400156	-1.71329	-0.695695	-0.0011435	-0.000348347	0.00188945	-525509	-4.40732e+06	4.96395e+06	
40515	-0.400543	-1.71287	-0.695965	-0.00123809	-0.00114166	0.00278296	-634160	681613	-442972	
40545	-0.383517	-1.71512	-0.676942	-0.00135224	-0.00101897	0.00270323	2.79801e+07	-3.68923e+06	3.12627e+07	
40575	-0.383517	-1.71512	-0.676942	0.0288663	-0.00500334	0.0364669	2.79801e+07	-3.68923e+06	3.12627e+07	
40605	-0.380722	-1.69133	-0.669418	0.0523696	-0.00810229	0.0627276	4.60289e+06	3.91668e+07	1.23878e+07	
40635	-0.381105	-1.689	-0.670001	0.0563741	0.0259728	0.073505	-631250	3.83656e+06	-961061	
40665	-0.381381	-1.68876	-0.669322	0.0560522	0.0279295	0.0730148	-456250	406548	1.1227e+06	
40726	-0.383279	-1.68331	-0.669418	0.000285775	-0.000654118	1.63435e-10	-3.28375e+06	8.78558e+06	676995	
40755	-0.386294	-1.68074	-0.668394	-0.00138894	0.00382652	0.000345268	-5.00449e+06	4.27021e+06	1.69955e+06	
40785	-0.381325	-1.67012	-0.685105	-0.00349082	0.00562001	0.00105908	8.26062e+06	1.76525e+07	-2.77777e+07	
40815	-0.383595	-1.66491	-0.684613	0.00196119	0.0172707	-0.0172742	-3.77849e+06	8.67105e+06	818441	
40845	-0.383595	-1.66491	-0.684613	-0.00393326	0.0307975	-0.0159975	-3.77849e+06	8.67105e+06	818441	
40876	-0.383849	-1.66581	-0.683553	-0.006087	0.03574	-0.0155309	-422865	-1.51112e+06	1.76997e+06	
40905	-0.383687	-1.66524	-0.683222	-0.00612506	0.035604	-0.0153716	270404	962581	553897	
40965	-0.386064	-1.63409	-0.673261	-0.000715405	-0.00118081	1.43911e-11	-6.63558e+06	9.94677e+06	2.10257e+06	
40995	-0.386064	-1.63409	-0.673261	-0.00708556	0.00836809	0.00201847	-6.63558e+06	9.94677e+06	2.10257e+06	
41025	-0.386219	-1.63589	-0.67332	-0.00967344	0.0122473	0.00283847	-261483	-3.03457e+06	-98844.2	
41056	-0.385289	-1.6388	-0.672336	-0.00981464	0.0106087	0.0027851	1.56599e+06	-4.89766e+06	1.65723e+06	
41085	-0.385742	-1.63815	-0.673842	-0.00901599	0.00811086	0.00363029	-763699	1.08665e+06	-2.53896e+06	
41115	-0.385712	-1.63908	-0.672782	-0.00940547	0.00866505	0.00233542	50298.2	-1.56612e+06	1.78973e+06	
41145	-0.378974	-1.645	-0.673117	-0.00938888	0.00814823	0.00292603	1.14021e+07	-1.00149e+07	-567604	
41175	-0.377295	-1.64798	-0.673055	-0.0063103	0.00544421	0.00277278	2.84449e+06	-5.05831e+06	106611	
41206	-0.377015	-1.64904	-0.67275	-0.00520095	0.00347147	0.00281435	475283	-1.78672e+06	515977	
41235	-0.377015	-1.64904	-0.67275	-0.0046021	0.00122021	0.00346448	475283	-1.78672e+06	515977	
41265	-0.377891	-1.64626	-0.673705	-0.00430267	9.45745e-05	0.00378955	-1.49042e+06	4.71787e+06	-1.62369e+06	
41325	-0.389173	-1.63219	-0.676713	0.000324589	-0.000126289	2.9104e-10	-1.67024e+07	2.09633e+07	-1.91307e+06	
41356	-0.379183	-1.64574	-0.675785	-0.0132044	0.016854	-0.00154959	1.70624e+07	-2.31484e+07	1.5841e+06	
41416	-0.378315	-1.64898	-0.67121	-0.000600118	0.00062065	1.12013e-10	-2.8702e+06	5.38804e+06	2.48859e+06	
41446	-0.374988	-1.65266	-0.672176	-0.00154728	0.0023987	0.000821236	5.71225e+06	-6.32098e+06	-1.65915e+06	
41475	-0.376496	-1.65095	-0.672915	-0.000347711	0.0010713	0.000472814	-2.59447e+06	2.93715e+06	-1.26951e+06	
41506	-0.375455	-1.65172	-0.672918	-0.00151522	0.00239301	-9.84641e-05	1.79165e+06	-1.31751e+06	-5851.67	
41535	-0.373272	-1.65408	-0.673709	-0.000601477	0.00172108	-0.000101448	3.76301e+06	-4.0651e+06	-1.36376e+06	
41595	-0.37822	-1.64852	-0.673874	3.98458e-05	-0.000610396	2.37979e-10	-8.54805e+06	9.59639e+06	-284069	
41626	-0.378003	-1.65023	-0.674092	-0.00201169	0.00169274	-6.81763e-05	-250717	-3.02328e+06	2.01049e+06	
41655	-0.378003	-1.65023	-0.674092	-0.00228998	-0.0016631	0.00216347	-250717	-3.02328e+06	2.01049e+06	
41745	-0.37399	-1.65548	-0.673217	5.90827e-05	-2.24433e-05	2.77252e-10	3.00179e+06	-8.51747e+06	3.30027e+06	
41775	-0.375216	-1.65273	-0.674576	0.00267064	-0.00743264	0.00287123	-2.13625e+06	4.78408e+06	-2.36826e+06	
41806	-0.375492	-1.65164	-0.673154	0.00190159	-0.00571037	0.00201866	-483071	1.90821e+06	2.48393e+06	
41835	-0.376672	-1.64992	-0.675835	0.00161175	-0.00456545	0.00350901	-2.06251e+06	3.00116e+06	-4.68706e+06	
41865	-0.376672	-1.64992	-0.675835	-0.00148201	-6.37017e-05	-0.00352157	-2.06251e+06	3.00116e+06	-4.68706e+06	
41896	-0.375914	-1.65216	-0.675648	-0.00197701	0.000656578	-0.00464647	1.32993e+06	-3.9282e+06	328194	
41925	-0.373577	-1.65877	-0.675736	-0.00169773	-0.000168344	-0.00457755	1.06856e+06	-3.89376e+06	2.96221e+06	
41956	-0.373577	-1.65877	-0.675736	-0.000479571	-0.00460722	-0.00120063	1.06856e+06	-3.89376e+06	2.96221e+06	
42016	-0.373418	-1.66099	-0.674935	-0.000733855	-0.000368524	1.7732e-10	364189	-1.41572e+06	2.8362e+06	
42045	-0.373818	-1.65986	-0.672366	-0.000438862	-0.00151526	0.00229732	-706621	1.99745e+06	4.53528e+06	
42075	-0.372092	-1.66135	-0.666946	-0.000947629	-7.70921e-05	0.00556272	3.05317e+06	-2.6366e+06	9.58456e+06	
42105	-0.377886	-1.65401	-0.668366	-0.000398059	-0.00055168	0.00728794	2.72804e+06	-2.73043e+06	206573	
42135	-0.377886	-1.65401	-0.668366	0.00254823	-0.00350055	0.00751104	2.72804e+06	-2.73043e+06	206573	
42165	-0.381734	-1.64931	-0.673827	0.00377584	-0.00472924	0.007604	-6.83498e+06	8.36239e+06	-9.70114e+06	
42195	-0.382123	-1.64813	-0.674296	0.0019304	-0.0024714	0.00498469	-692643	2.09467e+06	-834934	
42226	-0.381781	-1.64922	-0.675619	0.00147325	-0.00108892	0.00443364	609296	-1.93721e+06	-2.35582e+06	
42255	-0.381951	-1.64732	-0.675687	0.00174744	-0.00196066	0.00337352	-304669	3.38352e+06	-121718	
42285	-0.381951	-1.64732	-0.675687	0.00133613	0.00260709	0.0032092	-304669	3.38352e+06	-121718	
42316	-0.378385	-1.65175	-0.6693	0.00125387	0.00352064	0.00317634	9.9727e+06	-1.44325e+07	4.17623e+06	
42345	-0.378385	-1.65175	-0.6693	0.0126228	-0.0129324	0.00793724	9.9727e+06	-1.44325e+07	4.17623e+06	
42375	-0.378385	-1.65175	-0.6693	0.0329671	-0.0423748	0.0164567	9.9727e+06	-1.44325e+07	4.17623e+06	
42406	-0.378252	-1.65015	-0.669986	0.0353605	-0.0458386	0.017459	-379778	3.11691e+06	-94253.9	
42435	-0.379205	-1.6492	-0.673539	0.0351099	-0.0437814	0.0173968	-1.71436e+06	1.7105e+06	-6.39043e+06	
42495	-0.375413	-1.65363	-0.668212	0.000114145	-0.00029468	2.7704e-10	1.0356e+06	-3.13674e+06	-227027	
42525	-0.38613	-1.63612	-0.671492	0.000797642	-0.00236493	-0.000149838	-1.93611e+07	3.16187e+07	-5.92462e+06	
42556	-0.387231	-1.63501	-0.671348	-0.00907651	0.0137606	-0.0031714	-1.99138e+06	2.01089e+06	260799	
42586	-0.379807	-1.64673	-0.674906	-0.00967393	0.0143639	-0.00309316	1.34574e+07	-2.12351e+07	-6.4496e+06	
42615	-0.381129	-1.64242	-0.673605	-0.00523299	0.0073563	-0.00522153	-2.39904e+06	7.81898e+06	2.36104e+06	
42646	-0.380343	-1.6456	-0.673656	-0.00624059	0.0106403	-0.00422989	1.42736e+06	-5.77646e+06	-92415.3	
42705	-0.380383	-1.64575	-0.675152	0.000902091	0.00160614	1.35227e-10	29703.7	-63141.6	1.05372e+06	
42735	-0.380383	-1.64575	-0.675152	0.0009413	0.0015228	0.00139091	29703.7	-63141.6	1.05372e+06	
42826	-0.383337	-1.63862	-0.676702	-0.000352015	0.000570509	2.72268e-10	914220	4.14465e+06	427648	
42885	-0.381487	-1.63206	-0.663937	-0.000932293	-4.23368e-05	1.49085e-10	1.83618e+06	-1.76383e+06	3.05213e+06	
42915	-0.384385	-1.62912	-0.664495	-0.000106011	-0.00083606	0.00137346	-5.33406e+06	5.41355e+06	-1.02712e+06	
42945	-0.388466	-1.62546	-0.664388	-0.00202627	0.00111282	0.00100369	-7.52156e+06	6.74095e+06	196643	
42976	-0.38731	-1.62546	-0.663721	-0.00631356	0.00495516	0.00111578	2.13296e+06	-7218.01	1.23127e+06	
43005	-0.38825	-1.62536	-0.664452	-0.00580165	0.00495343	0.00141129	-1.73675e+06	193872	-1.35082e+06	
43035	-0.38905	-1.62398	-0.663263	-0.00653109	0.00503485	0.000843942	-1.481e+06	2.54039e+06	2.19909e+06	
43065	-0.385814	-1.62849	-0.665503	-0.00688653	0.00564455	0.00137172	5.99802e+06	-8.35908e+06	-4.15243e+06	
43095	-0.385814	-1.62849	-0.665503	-4.87813e-05	-0.00388481	-0.00336205	5.99802e+06	-8.35908e+06	-4.15243e+06	
43126	-0.384563	-1.63002	-0.665665	0.00301021	-0.00814794	-0.00547979	2.3256e+06	-2.82723e+06	-301138	
43155	-0.385634	-1.62669	-0.66554	0.00321951	-0.00840239	-0.00550689	1.06168e+06	450548	67200.7	
43186	-0.385634	-1.62669	-0.66554	0.00430243	-0.00794283	-0.00543835	1.06168e+06	450548	67200.7	
43215	-0.384873	-1.62941	-0.665651	0.00519425	-0.00756437	-0.0053819	1.41863e+06	-5.08045e+06	-206445	
43275	-0.384425	-1.62941	-0.664658	-0.000846206	6.86958e-05	2.613e-10	-5.99613e+06	1.06829e+07	-254897	
43365	-0.386342	-1.63026	-0.664911	-8.81666e-05	0.000662362	1.01501e-10	-4.40558e+06	1.81195e+06	-2.84305e+06	
43396	-0.384825	-1.62951	-0.662682	-0.00127767	0.00115159	-0.000767624	2.85488e+06	1.41584e+06	4.19582e+06	
43425	-0.384086	-1.63171	-0.664002	-7.86265e-05	0.00174624	0.000994619	1.39315e+06	-4.15114e+06	-2.48802e+06	
43455	-0.383453	-1.63331	-0.662702	8.85512e-05	0.00124811	0.000696057	1.19461e+06	-3.02292e+06	2.45471e+06	
43485	-0.383453	-1.63331	-0.662702	0.00130705	-0.00183527	0.00319986	1.19461e+06	-3.02292e+06	2.45471e+06	
43546	-0.382325	-1.63475	-0.662489	-0.00065357	0.000330295	1.78043e-10	-1.44125e+06	1.4573e+06	290701	
43575	-0.378116	-1.64014	-0.663109	-0.00082652	0.000505171	3.48843e-05	2.34351e+06	-3.81829e+06	-1.60672e+06	
43606	-0.378116	-1.64014	-0.663109	0.00163416	-0.00350403	-0.00165217	2.34351e+06	-3.81829e+06	-1.60672e+06	
43635	-0.379283	-1.63996	-0.663325	0.00353241	-0.00659684	-0.00295361	-2.22015e+06	329417	-411682	
43665	-0.37941	-1.63989	-0.660497	0.00166748	-0.00632013	-0.00329942	-240475	130878	5.38479e+06	
43696	-0.377949	-1.64175	-0.660389	0.00158812	-0.00627694	-0.00152244	2.78852e+06	-3.5493e+06	206702	
43725	-0.381128	-1.63766	-0.663785	0.00250833	-0.00744821	-0.00145423	-6.07488e+06	7.8167e+06	-6.48835e+06	
43755	-0.382676	-1.63536	-0.66256	-0.000589856	-0.0034617	-0.00476329	-2.9621e+06	4.39742e+06	2.34249e+06	
43785	-0.383179	-1.63508	-0.664097	-0.00201166	-0.00135093	-0.00363889	-963713	541314	-2.94493e+06	
43815	-0.383179	-1.63508	-0.664097	-0.00334159	-0.000603919	-0.0077029	-963713	541314	-2.94493e+06	
43935	-0.381473	-1.63834	-0.663407	-6.38859e-05	-2.83554e-06	5.81542e-11	1.00137e+06	852322	-1.09991e+06	
43965	-0.381473	-1.63834	-0.663407	0.000957512	0.000866533	-0.00112191	1.00137e+06	852322	-1.09991e+06	
43995	-0.3874	-1.63155	-0.665266	0.00182871	0.00160805	-0.00207884	-1.14587e+07	1.31257e+07	-3.59358e+06	
44025	-0.381211	-1.63745	-0.664272	-0.00779658	0.0126336	-0.00509744	1.1982e+07	-1.14207e+07	1.92385e+06	
44055	-0.383439	-1.636	-0.662104	-0.00240469	0.00749429	-0.00423171	-4.32225e+06	2.80774e+06	4.20394e+06	
44085	-0.38236	-1.64122	-0.659111	-0.00396071	0.00850508	-0.00271829	2.09576e+06	-1.01411e+07	5.8134e+06	
44116	-0.384865	-1.63654	-0.661218	-0.00345772	0.00607123	-0.00132307	-4.87252e+06	9.09539e+06	-4.09861e+06	
44145	-0.383937	-1.63559	-0.660965	-0.00535801	0.00961843	-0.00292153	1.80585e+06	1.85305e+06	492286	
44176	-0.38446	-1.63646	-0.661072	-0.00438285	0.0106191	-0.0026557	-1.01919e+06	-1.69688e+06	-207843	
44205	-0.385108	-1.63443	-0.662329	-0.00481091	0.00990639	-0.00274299	-1.26488e+06	3.96228e+06	-2.45465e+06	
44235	-0.385108	-1.63443	-0.662329	-0.00648055	0.0151366	-0.00598313	-1.26488e+06	3.96228e+06	-2.45465e+06	
44265	-0.385643	-1.63467	-0.661607	-0.00739127	0.0179894	-0.00775047	-1.04827e+06	-463367	1.41307e+06	
44295	-0.381157	-1.63924	-0.659258	-0.00830326	0.0175863	-0.0065211	8.79199e+06	-8.95664e+06	4.60214e+06	
44326	-0.381157	-1.63924	-0.659258	0.00752232	0.00146435	0.00176275	8.79199e+06	-8.95664e+06	4.60214e+06	
44355	-0.38266	-1.63966	-0.662426	0.0114787	-0.00256613	0.00383372	-2.95494e+06	-828350	-6.22746e+06	
44385	-0.384777	-1.63424	-0.661084	0.0102376	-0.00291404	0.00121818	-1.05499e+06	1.40122e+06	2.74541e+06	
44415	-0.38763	-1.63226	-0.662872	0.0093198	-0.00169498	0.00360669	-5.62022e+06	3.89604e+06	-3.52257e+06	
44445	-0.380672	-1.64036	-0.662314	0.00847677	-0.00111058	0.00307831	1.37411e+07	-1.59797e+07	1.10247e+06	
44475	-0.383254	-1.63578	-0.660821	0.014248	-0.00782204	0.00354134	-5.10271e+06	9.04125e+06	2.95143e+06	
44535	-0.382689	-1.63499	-0.661158	-0.000657159	-0.000501629	1.44992e-10	1.53021e+06	196809	-1.12593e+06	
44565	-0.383436	-1.63521	-0.661052	0.000169155	-0.000395352	-0.000608002	-1.48226e+06	-431358	209765	
44595	-0.384251	-1.63353	-0.661481	-0.000586798	-0.000615345	-0.000501022	-1.6198e+06	3.3276e+06	-850962	
44625	-0.384292	-1.63376	-0.662057	-0.0014129	0.00108173	-0.000935013	-81448.8	-448107	-1.14575e+06	
44685	-0.383756	-1.63335	-0.66151	2.17918e-05	-0.000361408	2.06379e-10	1.06887e+06	807105	1.09078e+06	
44716	-0.383048	-1.63511	-0.660911	0.000182122	-0.000240342	0.000163617	2.28124e+06	-4.85851e+06	-1.35864e+06	
44745	-0.383048	-1.63511	-0.660911	0.00250899	-0.00519602	-0.00122219	2.28124e+06	-4.85851e+06	-1.35864e+06	
44775	-0.380604	-1.63746	-0.66012	0.00387773	-0.00811112	-0.00203737	4.89601e+06	-4.69906e+06	1.58433e+06	
44805	-0.380604	-1.63746	-0.66012	0.0112217	-0.0151597	0.000339116	4.89601e+06	-4.69906e+06	1.58433e+06	
44835	-0.378094	-1.6395	-0.662328	0.0125437	-0.0164285	0.000766883	1.01854e+06	-475328	-2.10801e+06	
44866	-0.381547	-1.638	-0.660216	0.013002	-0.0166424	-0.00018172	-6.94478e+06	3.01252e+06	4.24901e+06	
44895	-0.384852	-1.63395	-0.660218	0.0107102	-0.0156482	0.00122045	-6.65776e+06	8.15854e+06	-2626.7	
44925	-0.383921	-1.63477	-0.661565	0.00831344	-0.0127112	0.00121951	1.87639e+06	-1.63517e+06	-2.71708e+06	
44955	-0.383921	-1.63477	-0.661565	0.0106777	-0.0147715	-0.00220402	1.87639e+06	-1.63517e+06	-2.71708e+06	
44985	-0.381052	-1.63795	-0.658203	0.0109592	-0.0150167	-0.00261158	2.37731e+06	-2.71031e+06	4.66616e+06	
45015	-0.381052	-1.63795	-0.658203	0.0134553	-0.0178626	0.00228789	2.37731e+06	-2.71031e+06	4.66616e+06	
45045	-0.380126	-1.6405	-0.656545	0.0155236	-0.0202205	0.00634745	1.87727e+06	-5.17867e+06	3.35896e+06	
45075	-0.381052	-1.63897	-0.657869	0.0168189	-0.0237938	0.00866514	-1.8797e+06	3.11142e+06	-2.68695e+06	
45105	-0.379374	-1.64103	-0.658865	0.0156911	-0.021927	0.00705297	3.41091e+06	-4.19691e+06	-2.02482e+06	
45136	-0.379558	-1.64149	-0.659217	0.0185563	-0.0254524	0.00535212	-374166	-930441	-716496	
45165	-0.380041	-1.64129	-0.65944	0.0183205	-0.0260386	0.00490073	-984929	419082	-452772	
45195	-0.379669	-1.64319	-0.658579	0.0180251	-0.0259128	0.0047649	758638	-3.88698e+06	1.75715e+06	
45255	-0.378717	-1.64263	-0.657678	0.000290393	-0.000814899	9.27353e-11	1.11694e+06	1.24899e+06	2.0698e+06	
45285	-0.378717	-1.64263	-0.657678	0.00149669	0.000534012	0.00223538	1.11694e+06	1.24899e+06	2.0698e+06	
45345	-0.378028	-1.64197	-0.658167	-0.000109689	0.000146034	6.71021e-11	-3.18315e+06	4.31728e+06	479495	
45375	-0.378028	-1.64197	-0.658167	-0.003452	0.00467917	0.00050347	-3.18315e+06	4.31728e+06	479495	
45405	-0.378139	-1.64126	-0.657516	-0.00631684	0.00856472	0.000935016	-229907	1.45691e+06	1.34109e+06	
45465	-0.379502	-1.6384	-0.65906	-0.000340769	-0.000855597	1.57799e-10	-99444.7	-3.6821e+06	3.47946e+06	
45496	-0.379222	-1.64104	-0.65907	-0.000427285	-0.00405902	0.00302713	578786	-5.46932e+06	-20600.4	
45525	-0.380286	-1.63831	-0.657156	2.41675e-05	-0.00832509	0.00301106	-2.20422e+06	5.64861e+06	3.96288e+06	
45555	-0.380286	-1.63831	-0.657156	-0.00367892	0.00116458	0.0096687	-2.20422e+06	5.64861e+06	3.96288e+06	
45586	-0.378295	-1.64214	-0.658254	-0.00447244	0.00319808	0.0110953	-186906	-1.7119e+06	323423	
45615	-0.378468	-1.64219	-0.659173	-0.00452851	0.00268451	0.0111924	-360230	-105759	-1.9119e+06	
45645	-0.377024	-1.64078	-0.65891	-0.00464738	0.00264961	0.0105614	3.00614e+06	2.93826e+06	546632	
45675	-0.377199	-1.64116	-0.659234	-0.00419646	0.00309035	0.0106434	-365531	-808859	-674146	
45705	-0.377596	-1.64129	-0.659009	-0.00437192	0.00270209	0.0103198	-827175	-255846	468922	
45735	-0.377905	-1.64082	-0.65842	-0.00479378	0.00257161	0.010559	-645976	964730	1.232e+06	
45765	-0.377905	-1.64082	-0.65842	-0.0057046	0.00393188	0.0122961	-645976	964730	1.232e+06	
45795	-0.377905	-1.64082	-0.65842	-0.00719681	0.00616041	0.015142	-645976	964730	1.232e+06	
45825	-0.377883	-1.64091	-0.657535	-0.0073906	0.00644983	0.0155116	1.53065e+06	-1.60924e+06	3.87424e+06	
45855	-0.379205	-1.63869	-0.657147	-0.00633445	0.00533945	0.0181848	-2.77791e+06	4.66854e+06	815879	
45885	-0.376932	-1.6422	-0.657596	-0.00833455	0.0087008	0.0187723	4.78081e+06	-7.38776e+06	-945996	
45915	-0.377263	-1.64152	-0.658169	-0.00532264	0.00404651	0.0181763	-697940	1.44531e+06	-1.2058e+06	
45945	-0.375973	-1.64103	-0.656378	-0.00588797	0.00521721	0.0171996	2.71982e+06	1.01678e+06	3.77631e+06	
45976	-0.376054	-1.64164	-0.656792	-0.00523521	0.00546124	0.0181059	-169882	-1.2827e+06	-875929	
46005	-0.377286	-1.63993	-0.656928	-0.00528618	0.00507643	0.0178431	-2.60669e+06	3.62999e+06	-287065	
46036	-0.377286	-1.63993	-0.656928	-0.0084924	0.00954132	0.01749	-2.60669e+06	3.62999e+06	-287065	
46096	-0.377853	-1.63946	-0.656414	0.000838463	-0.000523931	2.88227e-10	-1.42153e+06	382420	1.97837e+06	
46125	-0.377728	-1.63941	-0.657403	0.000753171	-0.000500985	0.000118702	169544	-70135.6	-1.72189e+06	
46155	-0.37828	-1.63998	-0.658688	0.00076843	-0.000507298	-3.62675e-05	-1.176e+06	-1.21364e+06	-2.73585e+06	
46185	-0.37828	-1.63998	-0.658688	-0.000395811	-0.0017088	-0.00274476	-1.176e+06	-1.21364e+06	-2.73585e+06	
46215	-0.378338	-1.64037	-0.657247	-0.00120725	-0.00254622	-0.0046325	-123800	-838583	3.07355e+06	
46245	-0.378178	-1.64004	-0.658168	-0.00129267	-0.00312484	-0.00251175	342187	701982	-1.96796e+06	
46275	-0.378178	-1.64004	-0.658168	-0.000748597	-0.00200869	-0.00564081	342187	701982	-1.96796e+06	
46335	-0.379067	-1.63983	-0.657248	-0.000237764	-0.000225658	5.78662e-11	80711.8	-2.56879e+06	-21389.9	
46366	-0.379665	-1.64008	-0.65754	-0.000206287	-0.00122748	-8.342e-06	-1.28492e+06	-547084	-627126	
46395	-0.381205	-1.63942	-0.658902	-0.000591762	-0.00139161	-0.00019648	-3.31339e+06	1.4203e+06	-2.92996e+06	
46425	-0.380111	-1.63857	-0.658497	-0.00168518	-0.000922912	-0.00116337	2.35601e+06	1.83297e+06	872243	
46455	-0.381559	-1.63825	-0.658689	-0.000695656	-0.000153067	-0.000797025	-3.12219e+06	682538	-414685	
46485	-0.381512	-1.63783	-0.659233	-0.00191331	0.000113123	-0.000958752	100768	922395	-1.17522e+06	
46516	-0.381512	-1.63783	-0.659233	-0.0017803	0.00133068	-0.00251004	100768	922395	-1.17522e+06	
46545	-0.382423	-1.63678	-0.658874	-0.00171077	0.00196714	-0.00332094	-1.97146e+06	2.26036e+06	776734	
46575	-0.381628	-1.63751	-0.658952	-0.0033668	0.00386584	-0.00266849	1.72307e+06	-1.5739e+06	-168791	
46605	-0.380805	-1.63713	-0.658482	-0.00259142	0.00315758	-0.00274444	1.78584e+06	824390	1.02179e+06	
46635	-0.382105	-1.63748	-0.658984	-0.00125203	0.00377587	-0.0019781	-2.82381e+06	-765613	-1.09207e+06	
46665	-0.381277	-1.63643	-0.658717	-0.00277689	0.00336244	-0.00256781	1.8005e+06	2.28671e+06	580796	
46695	-0.381001	-1.63878	-0.65826	-0.00131849	0.00521468	-0.00209737	600994	-5.11585e+06	995707	
46755	-0.380763	-1.63821	-0.65903	-0.000738255	-0.000407595	2.10785e-10	519372	1.2347e+06	-1.681e+06	
46786	-0.379572	-1.63724	-0.657677	-0.000504538	0.00014802	-0.000756448	2.60682e+06	2.13386e+06	2.95947e+06	
46815	-0.381317	-1.63797	-0.658616	0.000433917	0.00091621	0.000308963	-1.82659e+06	-287243	-711274	
46845	-0.381101	-1.6374	-0.657901	-5.92617e-05	0.000838654	0.000116919	473303	1.25152e+06	1.56838e+06	
46875	-0.381181	-1.6361	-0.658516	-3.08635e-05	0.000913745	0.000211021	-174949	2.85075e+06	-1.35018e+06	
46905	-0.38122	-1.63702	-0.656843	-4.66089e-05	0.00117031	8.95055e-05	-86251.2	-2.02168e+06	3.67868e+06	
46935	-0.38122	-1.63702	-0.656843	-0.000131998	-0.000831148	0.0037314	-86251.2	-2.02168e+06	3.67868e+06	
46966	-0.382376	-1.63466	-0.657752	-0.000186336	-0.00210481	0.00604897	-2.5481e+06	5.19277e+06	-2.00209e+06	
46995	-0.382477	-1.63545	-0.657095	-0.00240318	0.00241291	0.00430715	-222791	-1.73918e+06	1.44829e+06	
47026	-0.380563	-1.6374	-0.658472	-0.0026037	0.000847641	0.00561062	4.22845e+06	-4.29818e+06	-3.04057e+06	
47055	-0.384743	-1.63267	-0.659438	0.00107506	-0.00289178	0.00296532	-9.24458e+06	1.04577e+07	-2.13732e+06	
47085	-0.382315	-1.63564	-0.657095	-0.00724506	0.00652012	0.00104174	5.37705e+06	-6.57648e+06	5.18889e+06	
47145	-0.38334	-1.63619	-0.658499	-0.000740764	-0.000408243	9.56359e-11	-1.30504e+06	-2.11272e+06	76030.7	
