MS	x	y	z	vx	vy	vz	ax	ay	az	
5090	0.0146109	0.0388127	0.666227	-0.00275472	-0.0134353	1.16618e-10	-0.270222	0.679476	0.228662	
5210	0.00598676	0.0358311	0.669662	0.00041908	-0.00373442	6.61817e-11	-0.271146	0.679802	0.169697	
5300	0.0218766	0.0249678	0.671373	-0.00127516	-0.000967661	6.94731e-11	-0.276729	0.680197	0.144736	
5360	0.0319342	0.0295754	0.669134	-0.0011828	-0.000897581	3.81957e-11	-0.328708	0.678842	0.159149	
5601	0.0159452	0.0368765	0.664901	0.00214957	0.00162995	2.87529e-11	-0.292977	0.678535	0.159738	
5661	0.0133544	0.0353244	0.664403	-0.000774587	0.00016837	5.19565e-11	-0.276412	0.679842	0.157444	
6170	0.0181143	0.0381226	0.665546	-0.0016284	-0.0106872	9.95709e-11	-0.212392	0.68119	0.237074	
6290	0.0145587	0.0356055	0.666476	0.00370293	-0.00296139	5.23943e-11	-0.261898	0.68038	0.158771	
6321	0.0145587	0.0356055	0.666476	0.00417128	-0.000963799	3.66191e-11	-0.291931	0.679464	0.174377	
6381	0.01674	0.038837	0.666793	0.00394751	-0.000912094	5.83352e-11	-0.278512	0.680064	0.162042	
6440	0.0125531	0.0363429	0.667934	0.00375452	-0.000867503	5.28923e-11	-0.268646	0.678576	0.16028	
6500	0.0137438	0.0395184	0.666037	0.00353534	-0.000816865	4.31281e-11	-0.273076	0.680494	0.159734	
7041	0.0148756	0.0357209	0.665766	0.00340243	0.00118746	9.19198e-11	-0.277128	0.679976	0.218857	
7070	0.0148756	0.0357209	0.665766	0.00333489	0.00116388	4.42902e-11	-0.277777	0.679373	0.147634	
7160	0.0215097	0.0364936	0.666555	0.00459947	0.00196136	6.30359e-11	-0.225934	0.680804	0.233466	
7610	0.0320801	0.02933	0.668783	-0.00368141	0.000909495	7.66744e-11	-0.277733	0.679034	0.159738	
7850	0.025256	0.0242715	0.673033	-0.00145616	-0.0060769	4.28292e-11	-0.277031	0.680805	0.23794	
8120	0.0192109	0.0239743	0.671706	0.00270364	6.51332e-06	1.44374e-10	-0.191272	0.681183	0.240623	
8240	0.0319889	0.0246468	0.671972	0.00104065	0.00175297	1.34903e-10	-0.276388	0.680003	0.236671	
8270	0.0319889	0.0246468	0.671972	0.000979903	0.00165064	4.97059e-11	-0.277197	0.681091	0.236695	
8480	0.0124623	0.0386394	0.665668	0.000478892	0.000771846	6.08215e-11	-0.235758	0.681357	0.202738	
8600	0.000863749	0.0377661	0.670788	0.00264992	0.00220602	3.00143e-11	-0.276813	0.67986	0.166746	
8840	0.0112521	0.0374612	0.665312	0.000184593	0.000483113	9.52227e-11	-0.277738	0.679811	0.167057	
8900	0.0183853	0.0381696	0.665641	0.000494179	0.00117892	8.21566e-11	-0.27667	0.679981	0.195611	
9051	0.0221662	0.0378026	0.664907	0.000191662	0.000205781	1.07618e-10	-0.263114	0.680642	0.179363	
9470	0.0125488	0.0402489	0.666091	0.00320658	-0.00485658	2.18953e-11	-0.277251	0.680472	0.243281	
9890	0.024881	0.0247615	0.671475	0.000604099	-0.000315724	1.56848e-10	-0.277354	0.680117	0.227316	
9980	0.0219859	0.0248761	0.671363	0.00474276	0.0016747	5.32108e-11	-0.28964	0.680732	0.221712	
10070	0.020761	0.0255042	0.670796	0.00148555	0.00128946	6.42292e-11	-0.274505	0.679237	0.178414	
10340	0.0273086	0.0272787	0.667171	0.00129406	1.50916e-05	4.95732e-11	-0.19538	0.680625	0.236063	
10400	0.0107746	0.0446367	0.675364	-0.00199555	-0.00125364	7.80666e-11	-0.271713	0.680734	0.236565	
10430	0.0107746	0.0446367	0.675364	-5.23779e-05	-0.00145126	1.20746e-10	-0.278022	0.679658	0.236757	
11060	0.0184262	0.0413961	0.667612	0.00511458	0.000644456	1.23719e-10	-0.288694	0.679227	0.242587	
11090	0.0184262	0.0413961	0.667612	0.00491354	0.000619134	4.17481e-11	-0.276766	0.679328	0.154623	
11210	0.00893535	0.0315883	0.670365	0.00178252	0.000363113	1.92307e-11	-0.276249	0.662129	0.160256	
11301	0.0171478	0.0355521	0.666687	0.00159641	0.000325203	3.83314e-11	-0.283868	0.679221	0.159714	
11720	0.0278196	0.0243912	0.668245	-0.00179105	-0.00344839	8.07517e-11	-0.235207	0.681645	0.29908	
11960	0.0248062	0.0235356	0.668166	0.00165391	0.00176677	2.21352e-11	-0.277789	0.679731	0.18446	
12260	0.0178885	0.037987	0.668146	0.000102586	0.000372409	1.01219e-10	-0.27599	0.689219	0.240996	
12291	0.0178885	0.037987	0.668146	-0.00145429	-0.00951952	7.82657e-11	-0.277713	0.68509	0.237169	
12950	0.0233701	0.0247248	0.669336	-0.00160629	-0.000980438	5.23848e-11	-0.277833	0.678787	0.174616	
13010	0.0103828	0.0463805	0.669973	0.00273078	0.00142448	7.80149e-11	-0.277964	0.679855	0.162531	
13251	0.0164849	0.020637	0.666935	0.00215762	0.00112548	9.40969e-12	-0.277268	0.681184	0.313656	
13340	0.0124176	0.0385228	0.666442	0.00292483	0.000397688	1.41111e-10	-0.277225	0.680743	0.31358	
13760	0.0334122	0.0275213	0.666889	-0.0013226	0.00108197	7.73595e-11	-0.278273	0.678613	0.161166	
13820	0.0298825	0.0278419	0.667698	0.0034294	0.00276288	9.58862e-12	-0.277787	0.679561	0.15981	
13911	0.0239768	0.0237226	0.666149	0.00312195	0.00209608	3.33529e-11	-0.276776	0.679301	0.158823	
14030	0.035502	0.024428	0.669176	0.001055	0.0016076	7.83954e-11	-0.277228	0.648312	0.237562	
14781	0.0120963	0.0365996	0.666214	-0.00274714	-4.0567e-05	2.39608e-11	-0.277117	0.679627	0.159738	
14900	0.00820268	0.0376131	0.669056	0.00152238	0.000612426	5.77722e-11	-0.274446	0.680897	0.192574	
15290	0.0264504	0.0259642	0.67226	0.00450871	-0.00265082	7.08826e-11	-0.294922	0.678319	0.147672	
15350	0.0247237	0.0225378	0.672077	0.00258902	-0.00193893	2.90296e-11	-0.199305	0.680937	0.161276	
15681	0.0270618	0.024548	0.668372	-0.00159367	-0.00369728	9.35552e-12	-0.201963	0.681552	0.311851	
16131	0.0181843	0.0229772	0.671232	0.00369172	0.00114487	4.3813e-11	-0.276104	0.680008	0.243406	
16310	0.0194435	0.0203046	0.670241	0.00358905	0.00238966	8.47032e-11	-0.277727	0.679621	0.235287	
16341	0.0194435	0.0203046	0.670241	0.00348272	0.00231887	7.81789e-11	-0.276625	0.680776	0.236906	
16370	0.0194435	0.0203046	0.670241	0.00339652	0.00226147	1.66109e-10	-0.259176	0.682258	0.325703	
16430	0.024722	0.0202609	0.667956	0.00018631	0.000172502	6.25333e-11	-0.274611	0.680751	0.297778	
16551	0.0291764	0.0256903	0.667812	-0.000101588	-1.71167e-05	4.75205e-11	-0.278174	0.680171	0.158402	
16610	0.0343529	0.023411	0.667511	0.00206256	0.000811139	1.3985e-11	-0.276052	0.677799	0.233083	
16730	0.0299448	0.0256097	0.67006	0.00107304	0.00178427	4.84474e-11	-0.276849	0.679627	0.161491	
16850	0.0200677	0.0258383	0.667811	0.000819731	0.00128379	4.76024e-11	-0.283961	0.679665	0.158675	
17150	0.0234154	0.0262757	0.6686	-0.00300992	-0.00360145	4.35768e-11	-0.278714	0.679963	0.161395	
17210	0.0124562	0.0341989	0.664843	-0.0015579	-0.00129271	1.63803e-11	-0.277499	0.678958	0.0780013	
17270	0.0167664	0.0351412	0.665971	-0.00145963	-0.00121116	4.3375e-11	-0.27779	0.679368	0.160648	
17540	0.0184569	0.0227784	0.671536	-0.0018589	0.00064195	3.84614e-11	-0.279956	0.679688	0.160256	
17600	0.0203008	0.0222094	0.671361	-0.00175039	0.000604474	3.27986e-11	-0.277436	0.678562	0.0780919	
17930	0.0205108	0.0381789	0.66657	0.0023585	0.00280943	2.87426e-11	-0.277345	0.680089	0.159681	
18020	0.0258081	0.0377816	0.66713	0.00524898	0.00421713	3.82383e-11	-0.341832	0.68151	0.159326	
18050	0.0258081	0.0377816	0.66713	0.00522274	0.00419605	1.24364e-10	-0.342408	0.676532	0.159441	
18231	0.025531	0.0279304	0.668823	0.00167098	-0.00094575	1.09373e-10	-0.240374	0.68159	0.280442	
18320	0.0320493	0.0290969	0.668041	0.00346378	0.00232543	1.05022e-10	-0.277634	0.680686	0.291728	
18350	0.0320493	0.0290969	0.668041	0.00243348	0.00235733	6.90815e-11	-0.277355	0.679862	0.230272	
18500	0.00301463	0.0349053	0.668559	0.00215058	0.0024461	9.5409e-12	-0.295041	0.679883	0.159015	
18560	0.0114486	0.0376893	0.664569	0.00420471	0.00255862	2.57672e-11	-0.275513	0.678547	0.0780825	
18621	0.00952606	0.0336282	0.665622	0.00299533	0.000779087	3.72387e-11	-0.277734	0.678844	0.0827527	
18650	0.00952606	0.0336282	0.665622	0.00289205	0.000752238	1.34664e-11	-0.345388	0.678429	0.149627	
18680	0.00952606	0.0336282	0.665622	0.00282047	0.000733628	1.0074e-11	-0.284675	0.678364	0.0839502	
18830	0.0400873	0.0259415	0.670079	0.00166189	0.00259699	4.8242e-12	-0.265672	0.623289	0.160807	
18891	0.0300876	0.0265308	0.667416	0.00160459	0.00250745	8.13932e-11	-0.311966	0.676913	0.159594	
19040	0.0128299	0.0392865	0.659862	-0.00485435	0.000223399	2.65474e-11	-0.266284	0.649836	0.147485	
19310	0.0340672	0.025906	0.668338	0.00197482	0.0032122	2.95746e-11	-0.277866	0.679237	0.164303	
19460	0.0354425	0.0259653	0.668537	-0.000417526	0.00197722	1.07503e-11	-0.277169	0.680332	0.179172	
19670	0.0321511	0.0269877	0.667848	0.0012493	0.00145115	4.79157e-11	-0.276419	0.679479	0.159719	
19760	0.0340538	0.0264321	0.668258	-0.000346286	0.000837307	3.83326e-11	-0.283501	0.678738	0.159719	
20090	0.0147186	0.0372625	0.66547	-0.0017506	-0.0019138	5.69022e-11	-0.276713	0.680524	0.237092	
20180	0.0161036	0.039737	0.667334	-0.00347956	-0.000661595	7.75987e-11	-0.277554	0.679857	0.235148	
20390	0.00120314	0.0311455	0.667654	0.000994267	0.00126357	7.78217e-11	-0.227779	0.679838	0.235823	
20511	0.00977723	0.0382341	0.670022	-0.000143628	0.00158448	6.38883e-11	-0.273225	0.680443	0.236623	
20600	0.0147652	0.0376124	0.666338	0.00147647	0.00107425	7.81093e-11	-0.278515	0.679863	0.236695	
20720	0.0162762	0.038191	0.667622	0.0013157	0.000957271	7.82068e-11	-0.277735	0.679102	0.20053	
20750	0.0162762	0.038191	0.667622	0.00302333	0.000127873	4.68295e-11	-0.277299	0.679555	0.173442	
20810	0.0109938	0.0348685	0.671717	0.00613092	0.00204256	8.18999e-11	-0.294857	0.681165	0.21	
21020	0.0128815	0.0380545	0.66429	-0.000944387	-0.00087575	7.66926e-11	-0.280174	0.680295	0.159776	
21050	0.0128815	0.0380545	0.66429	0.00132955	0.00110983	3.83361e-11	-0.276296	0.678805	0.159734	
21170	0.00360193	0.0426083	0.660904	0.00323076	0.00241921	2.87564e-11	-0.277341	0.678938	0.159758	
21200	0.00360193	0.0426083	0.660904	0.00310377	0.00232409	2.31732e-11	-0.269145	0.679663	0.19311	
21230	0.00360193	0.0426083	0.660904	0.00298177	0.00223274	6.96572e-11	-0.277773	0.680309	0.16585	
21290	0.0248902	0.0265157	0.666596	0.00285024	0.00213425	6.21857e-11	-0.276721	0.680427	0.159451	
21350	0.0287561	0.0264688	0.667135	0.00185567	0.00206022	6.22606e-11	-0.277229	0.679762	0.159642	
21590	0.0304912	0.0244523	0.666503	-0.00171736	0.000822693	7.19857e-11	-0.273692	0.679023	0.159968	
21680	0.0272322	0.0240159	0.670724	0.0017742	0.00211384	5.0741e-11	-0.309998	0.679029	0.169137	
21710	0.0272322	0.0240159	0.670724	0.00257153	0.00185409	1.30635e-10	-0.270689	0.679836	0.155518	
21891	0.0205138	0.021963	0.670657	0.000419386	-0.00227791	1.10373e-10	-0.277717	0.678917	0.175195	
22130	0.0261185	0.0274684	0.66873	-0.00151446	-0.00639305	2.54302e-10	-0.214395	0.682323	0.313953	
22160	0.0261185	0.0274684	0.66873	0.000273674	-0.00247786	9.41013e-11	-0.271004	0.681318	0.313671	
22310	0.034711	0.025292	0.669608	0.00305755	0.000492027	1.31754e-10	-0.261024	0.681653	0.3137	
22340	0.034711	0.025292	0.669608	0.00149592	-0.00816037	7.52788e-11	-0.271827	0.680352	0.313662	
22370	0.034711	0.025292	0.669608	0.00144434	-0.00787901	5.37604e-11	-0.276751	0.681175	0.298669	
22641	0.0294788	0.0260071	0.669549	0.00181807	0.00179325	1.16161e-10	-0.277494	0.679895	0.242002	
22940	0.0333895	0.0268583	0.667649	0.00171426	0.00162783	8.10511e-11	-0.277036	0.679392	0.158924	
23060	0.0280966	0.0277642	0.666824	0.00374819	0.00323741	1.50045e-10	-0.252749	0.682502	0.312593	
23120	0.0218422	0.0226399	0.671202	0.00345932	0.00298786	8.9395e-11	-0.276482	0.680604	0.229218	
23150	0.0218422	0.0226399	0.671202	0.00335683	0.00289933	3.47404e-11	-0.289835	0.679076	0.231603	
23240	0.0132192	0.0313844	0.662268	0.00117564	0.00144362	6.85454e-11	-0.277038	0.67454	0.228485	
23270	0.0132192	0.0313844	0.662268	-0.000441091	0.000895552	1.60939e-10	-0.276705	0.67901	0.243846	
23420	0.0118475	0.0345386	0.664364	-0.000373843	0.000759019	6.85524e-11	-0.277991	0.68076	0.175775	
23660	0.00747325	0.036386	0.663652	0.0033557	0.00116719	4.28129e-11	-0.274752	0.680727	0.23785	
23690	0.00747325	0.036386	0.663652	0.00141262	0.000933901	1.48786e-10	-0.275943	0.680696	0.236168	
23720	0.00747325	0.036386	0.663652	-0.000764531	-0.00811854	1.27958e-10	-0.278	0.680297	0.236958	
23750	0.00747325	0.036386	0.663652	-0.000730807	-0.00776044	6.51523e-11	-0.308768	0.679456	0.167057	
23810	0.00327844	0.0350215	0.669857	-0.00326139	-0.0185531	5.78573e-11	-0.270097	0.680064	0.175325	
23870	0.00616694	0.0333534	0.667962	-0.00256587	-0.00934399	1.26169e-10	-0.275815	0.68126	0.323509	
23900	0.00616694	0.0333534	0.667962	-0.00255304	-0.00929727	2.43509e-10	-0.27642	0.681259	0.324678	
24050	0.00897442	0.0388528	0.664841	-0.00139103	-0.00492797	1.38275e-11	-0.280198	0.681322	0.230459	
24200	0.00734613	0.0369549	0.664884	0.00449682	-0.00030867	1.39781e-10	-0.276817	0.679655	0.232968	
24350	0.0141561	0.0377006	0.667447	-0.00425627	-0.00436014	1.22496e-10	-0.276731	0.679431	0.194437	
24410	0.027878	0.0264284	0.668577	-0.00245908	-0.00151853	5.17122e-11	-0.276762	0.678713	0.172374	
24440	0.027878	0.0264284	0.668577	0.000700593	0.000463482	6.45189e-11	-0.279359	0.680307	0.215063	
24500	0.0225215	0.0257345	0.667955	0.00249929	-0.00486853	1.04513e-10	-0.276788	0.679829	0.158354	
24590	0.00165745	0.0342093	0.663499	0.00234162	-0.0045614	8.62871e-11	-0.265614	0.679668	0.159791	
24740	-0.0100201	0.0345339	0.656576	0.000858645	-0.00130674	8.11683e-11	-0.363061	0.678272	0.159154	
25040	0.00266582	0.0365833	0.710433	0.00365775	0.00222993	7.17917e-11	-0.2777	0.679419	0.159537	
25190	0.00622877	0.0309172	0.690253	0.00211646	0.00126124	3.53225e-11	-0.262162	0.680336	0.168202	
25400	0.00338054	0.0284601	0.688953	0.00410939	0.00316388	8.96144e-11	-0.27419	0.68087	0.248929	
25490	0.0037406	0.0297586	0.687828	0.00381174	0.00293472	1.09502e-10	-0.278452	0.680841	0.304172	
25521	0.0037406	0.0297586	0.687828	0.00320525	0.00262733	2.54834e-11	-0.27736	0.679258	0.141575	
25730	-0.00844043	0.0258737	0.672858	-0.000317002	-0.00939667	3.53354e-11	-0.277426	0.680042	0.235569	
26240	-0.009954	0.0257335	0.673252	-0.000210755	0.00140763	7.28361e-11	-0.277129	0.681291	0.220715	
26300	-0.00293969	0.0211917	0.685756	-0.000200451	0.00133881	1.2863e-10	-0.28943	0.679945	0.238204	
26480	-0.00849898	0.0298868	0.670527	0.00290456	0.00189423	1.77518e-10	-0.277326	0.680611	0.23669	
26570	-0.00467419	0.0266222	0.672435	-0.00120861	0.00113889	9.29934e-11	-0.276647	0.681016	0.309978	
26630	-0.0095939	0.0247376	0.673428	0.000733801	0.00151517	3.31569e-11	-0.276209	0.679859	0.221046	
26811	0.000538671	0.0235147	0.687654	0.01388	0.0412856	0.040723	1.08464e+07	-3.9095e+06	9.0431e+06	
27111	-0.0193784	0.032274	0.673679	0.00306037	0.00263727	1.3837e-10	-0.273383	0.679778	0.230617	
27140	-0.0193784	0.032274	0.673679	0.00302984	0.00261097	1.89259e-10	-0.274755	0.680393	0.24264	
27290	-0.0115167	0.0360629	0.671512	0.00328392	0.00226339	1.41931e-10	-0.277136	0.680182	0.236551	
27440	-0.0201579	0.0332858	0.680633	-0.000365774	-0.00729378	0.0106233	-6.15541e+06	-2.00544e+06	2.36717e+06	
27590	-0.0147955	0.0365881	0.679024	0.00220948	0.00183538	5.35959e-11	-0.277435	0.681335	0.223316	
27830	-0.0193949	0.0340676	0.672394	0.00143543	0.00216594	1.23773e-10	-0.276617	0.679857	0.242692	
27860	-0.0193949	0.0340676	0.672394	0.00234112	0.00243884	5.49774e-11	-0.277761	0.680496	0.20362	
27950	-0.0253778	0.0394764	0.718519	0.00103455	0.0014725	7.82547e-11	-0.241917	0.682046	0.237136	
28040	-0.00858391	0.0402567	0.700194	-0.00190076	-0.000275468	3.55007e-11	-0.276346	0.680617	0.236671	
28281	-0.0181025	0.040702	0.701264	-0.000245265	-0.00285483	0.00170184	1.43972e+06	772793	-1.85228e+06	
28310	-0.0181025	0.040702	0.701264	-0.000917595	-0.00160227	9.03535e-05	1.43972e+06	772793	-1.85228e+06	
28640	-0.0106408	0.0409555	0.697584	-0.00891694	-0.0128991	1.23261e-10	-0.273832	0.633382	0.316054	
28880	-0.00202775	0.0438076	0.700445	-0.00686509	-0.00992823	-5.51695e-10	-0.456291	0.269593	-2.04331	
28911	-0.00202775	0.0438076	0.700445	-0.00676238	-0.00978124	-1.31214e-09	-0.694928	0.429863	-2.18691	
28970	0.161076	-0.0359781	0.783235	-0.00627296	-0.00908088	-9.22314e-10	-0.563493	0.429001	-2.19599	
29090	0.0933939	0.0169878	0.710583	-0.00559164	-0.00811489	-7.49283e-10	-0.608619	0.49923	-1.66507	
29390	0.00815328	0.015062	0.539314	0.0278349	0.17671	3.97457e-10	-0.847827	0.888172	1.20441	
29480	0.0426205	-0.0351853	0.364457	-0.107622	0.0782904	1.05607e-09	-1.16691	0.568254	2.51445	
29840	0.148996	-0.0838491	0.166739	-0.00759179	0.121812	-0.332243	2.18502e+07	-7.37332e+06	-1.73562e+07	
29871	0.148996	-0.0838491	0.166739	-0.404651	-0.0168743	2.73559e-10	-0.768373	1.76885	1.82372	
30051	0.266303	-0.102521	0.106448	-0.324545	-0.0462517	-3.89348e-11	-0.997108	0.825167	-0.144203	
30080	0.266303	-0.102521	0.106448	-0.324545	-0.0462517	-1.64391e-10	-0.997108	0.825167	-0.144203	
30140	0.326319	-0.119431	0.11156	-0.296484	-0.0422959	4.41942e-10	-0.621802	1.52698	0.982094	
30170	0.326319	-0.119431	0.11156	-0.28633	-0.04095	3.82558e-11	-0.496905	1.31259	0.425065	
30380	0.716723	-0.165018	0.183383	-0.756825	-0.100424	4.07039e-10	-0.387144	0.753382	1.04369	
30740	1.16906	-0.234716	0.333178	-0.591758	-0.0559461	3.54821e-10	-0.19528	0.633096	2.95684	
30800	1.25935	-0.22513	0.372075	-0.570874	-0.0541133	1.87381e-09	-0.229045	0.576151	2.9743	
31371	1.66867	-0.21943	0.685805	-0.324043	-0.0286908	-6.64603e-10	-0.0777961	-0.896923	-1.84612	
31400	1.66867	-0.21943	0.685805	-0.314539	-0.0278635	-1.03871e-09	0.0846871	-0.566965	-1.92353	
31431	1.66867	-0.21943	0.685805	-0.100107	-0.216225	-3.88601e-10	-0.19597	-1.06049	-1.17758	
31460	1.66867	-0.21943	0.685805	-0.0694679	-0.237829	-3.09068e-10	0.0117836	-0.394	-1.28778	
31730	1.80397	-0.210851	0.943712	-0.052952	-0.181444	-1.15521e-10	0.0393453	0.338227	-0.320891	
31790	1.75417	-0.205089	0.893245	-0.0498646	-0.170894	-3.67186e-10	0.0281998	0.173024	-1.01996	
31820	1.75417	-0.205089	0.893245	-0.0483868	-0.165834	-5.64294e-11	-0.372653	0.0791043	-0.235122	
32091	1.72989	-0.199972	0.947974	-0.0071088	-0.035269	1.48074e-10	-0.209312	0.615195	0.259778	
32780	1.7163	-0.206851	0.980185	-0.000668525	0.00134521	8.88793e-12	-0.195903	0.680944	0.148132	
32900	1.72964	-0.195944	0.995009	-0.00153457	-0.00128942	7.55829e-11	-0.276763	0.680464	0.209952	
33110	1.70916	-0.215323	0.992007	-0.00182223	0.000261565	9.19464e-11	-0.275817	0.595885	0.161309	
33290	1.7219	-0.201755	1.01106	-0.000980336	0.000524118	1.60225e-10	-0.2775	0.680469	0.205416	
33411	1.70322	-0.219413	1.00485	0.000830614	-0.00018223	2.99944e-11	-0.283982	0.677193	0.166636	
33800	1.70794	-0.216069	0.993595	-0.00754029	-0.000746046	7.52642e-11	-0.277831	0.680349	0.167254	
34100	1.71029	-0.235732	0.994896	0.00067831	0.00150883	7.31159e-11	-0.230463	0.675552	0.221563	
34280	1.71733	-0.191728	1.00057	-0.00396167	0.000111896	2.40146e-11	-0.211458	0.679944	0.160097	
34310	1.71733	-0.191728	1.00057	-0.00240418	1.33084e-05	1.70581e-10	-0.209772	0.681154	0.227441	
34340	1.71733	-0.191728	1.00057	-0.00419605	-0.000900435	1.25904e-10	-0.289656	0.680175	0.233155	
34401	1.7098	-0.211222	1.00089	-0.00269032	-0.000902985	6.64336e-11	-0.203364	0.682355	0.276807	
34430	1.7098	-0.211222	1.00089	-0.00179189	0.000355343	8.76727e-11	-0.289581	0.679106	0.243535	
34611	1.71972	-0.197384	0.993656	0.000230622	-0.000643636	2.13142e-10	-0.277819	0.680239	0.236825	
34701	1.71141	-0.213839	0.990643	-0.00133476	-0.000618995	8.70114e-11	-0.278402	0.679075	0.161132	
34790	1.7141	-0.22535	0.98774	0.00704531	0.00200432	1.42603e-11	-0.278009	0.679857	0.237672	
35061	1.70983	-0.195525	0.990372	-0.000259792	-0.00321209	-5.18123e-10	-0.728643	-0.258469	-0.639659	
35090	1.70983	-0.195525	0.990372	-0.000249495	-0.00308509	-5.20208e-10	0.657148	0.665896	-2.47718	
35150	1.73382	-0.211406	0.999958	-0.00023371	-0.00289057	-5.3614e-10	-0.0329324	-0.359031	-2.23392	
35270	1.73719	-0.188884	1.01338	-0.000208277	-0.0025763	-1.61391e-10	-0.224161	-0.527923	-1.07594	
35810	1.48086	-0.215606	0.745292	0.0473577	-0.0244877	1.913e-10	-1.26094	-0.716889	2.12556	
35990	1.22623	-0.224479	0.611103	0.0227577	-0.0673398	3.65481e-10	-0.0386781	1.00342	1.74038	
36050	1.07422	-0.227169	0.617848	0.0212815	-0.0631463	1.88827e-10	-0.336488	2.10469	0.78678	
36380	0.656393	-0.299846	0.536979	0.542901	-0.0207681	-2.3861e-10	-1.21782	1.58375	-0.99421	
36470	0.600227	-0.374287	0.544554	0.50173	-0.0193836	4.50858e-11	-0.751479	2.30191	0.300572	
36500	0.600227	-0.374287	0.544554	0.494285	-0.0190113	6.06099e-10	-0.880166	2.36042	0.878405	
36740	0.335183	-0.411549	0.478312	0.224174	-0.0839571	4.92062e-10	-1.94195	1.57054	0.863266	
37100	0.347423	-0.514323	0.563877	-0.0547027	-0.0939393	-9.68723e-11	0.388761	0.833689	-0.358786	
37310	0.365516	-0.513334	0.582134	-0.0363348	-0.00436599	-8.49293e-11	-0.914899	0.479413	-0.188732	
37370	0.323567	-0.563054	0.578253	-0.0262849	0.00544212	4.31227e-11	-0.916237	0.153729	0.0653374	
37430	0.361026	-0.558724	0.581849	-0.0133466	0.00736685	-3.35206e-11	-0.545137	0.848844	-0.12415	
37460	0.361026	-0.558724	0.581849	-0.0122235	0.00609202	3.62097e-11	-0.272243	1.08224	0.172427	
37670	0.407532	-0.536564	0.581081	-0.0167188	0.0117857	2.65187e-10	-0.714972	0.512983	0.353583	
37850	0.398551	-0.548929	0.596842	-0.00748046	0.0114556	4.83387e-11	-1.06371	0.0814138	0.537097	
38270	0.473678	-0.57678	0.645348	-0.0181035	-0.0415085	2.65653e-10	-0.498193	1.03872	1.77102	
38390	0.516926	-0.590885	0.672017	-0.032483	-0.0740777	5.85649e-10	-0.233813	0.711901	1.02745	
38841	0.371987	-0.495923	0.732733	-0.0326986	-0.0653113	2.17645e-10	-0.115675	0.696517	0.290193	
38870	0.371987	-0.495923	0.732733	-0.0312544	-0.0624216	-9.18508e-11	0.302144	0.71217	-1.02056	
39110	0.443557	-0.493932	0.729507	0.0643399	0.0580073	0.00167052	1.27245e+06	1.47828e+06	163007	
39170	0.465831	-0.505296	0.750718	-0.0243264	-0.0485434	-3.48665e-10	-1.57469	0.0736144	-0.830155	
39200	0.465831	-0.505296	0.750718	-0.0232547	-0.0463992	-8.85256e-11	-1.75713	0.590676	-0.42155	
39320	0.416937	-0.511941	0.754014	-0.0209332	-0.0418058	5.92725e-12	-0.632549	0.619072	0.00823229	
39350	0.416937	-0.511941	0.754014	-0.0199151	-0.0397782	1.17849e-10	-0.643586	0.743461	0.561186	
39410	0.451194	-0.512629	0.758095	-0.0182873	-0.0365443	1.33918e-11	-0.645552	0.756866	0.0892788	
39530	0.468732	-0.516576	0.76158	-0.0166256	-0.0331985	1.92222e-10	-1.3928	-0.318129	0.320371	
39560	0.468732	-0.516576	0.76158	-0.0166256	-0.0331985	4.80556e-10	-1.3928	-0.318129	0.320371	
39590	0.468732	-0.516576	0.76158	-0.0166256	-0.0331985	7.6889e-10	-1.3928	-0.318129	0.320371	
39621	0.468732	-0.516576	0.76158	-0.0166256	-0.0331985	1.06683e-09	-1.3928	-0.318129	0.320371	
39650	0.468732	-0.516576	0.76158	-0.0166256	-0.0331985	1.34556e-09	-1.3928	-0.318129	0.320371	
39950	0.431429	-0.524794	0.767941	-0.0109074	-0.021869	5.35109e-10	-0.296218	-0.265413	0.891848	
40250	0.47589	-0.524565	0.788647	-0.00807427	-0.0161022	-6.5553e-11	-0.675535	-0.0816256	-0.312157	
40341	0.431019	-0.490343	0.760533	-0.00737766	-0.0147095	9.41172e-11	-0.550786	0.487234	0.313724	
40910	0.471343	-0.652038	0.846332	-0.00494836	-0.0252909	7.485e-11	-0.262715	0.675256	0.226818	
41271	0.492625	-0.718001	0.883275	0.000625941	-0.0288758	3.82832e-11	-0.277425	0.680102	0.159513	
41300	0.492625	-0.718001	0.883275	0.0006166	-0.0284449	6.70579e-11	-0.277773	0.67993	0.159662	
41720	0.498228	-0.779438	0.942891	0.00391664	-0.0304511	1.20442e-10	-0.261749	0.680361	0.174554	
42440	0.502681	-0.801967	0.976918	-0.00130247	-0.0325287	3.6643e-11	-0.278425	0.680232	0.203572	
42590	0.487324	-0.790128	0.981902	0.00158902	-0.0303613	1.93663e-10	-0.276921	0.680766	0.23909	
42710	0.487556	-0.792265	0.985697	-0.00234332	-0.0321188	1.06853e-10	-0.250901	0.681234	0.237452	
42890	0.501767	-0.809076	1.00518	0.000726087	-0.0306961	4.25447e-11	-0.280171	0.699974	0.23636	
42950	0.502255	-0.809405	1.00526	-0.00229375	-0.0321998	7.11263e-11	-0.205034	0.682412	0.237088	
43040	0.497421	-0.808431	1.00779	0.001631	-0.0325757	1.30217e-10	-0.276798	0.680655	0.31004	
43550	0.514466	-0.772517	0.992707	-0.00202116	-0.0316937	1.31382e-10	-0.206991	0.682695	0.312814	
43640	0.502595	-0.790386	1.00623	0.00244019	-0.0305118	2.26222e-10	-0.203055	0.682791	0.314198	
43790	0.470628	-0.664053	0.924486	-0.00274748	-0.03208	1.31309e-10	-0.221027	0.682564	0.312641	
43910	0.480337	-0.771324	1.00969	0.00404934	-0.0292808	1.29072e-11	-0.277647	0.679608	0.215121	
43940	0.480337	-0.771324	1.00969	0.00400895	-0.0289887	1.8454e-10	-0.277847	0.680191	0.256306	
44120	0.477502	-0.768318	1.00609	-0.00218519	-0.0317321	3.53275e-11	-0.198167	0.681314	0.235516	
44270	0.479378	-0.770397	1.01293	0.00274971	-0.0303728	1.82527e-10	-0.204766	0.681738	0.225342	
44330	0.484231	-0.770338	1.01189	4.64829e-05	-0.0302607	4.24629e-11	-0.217179	0.666579	0.235905	
45200	0.483982	-0.787029	1.01199	-0.00260208	-0.0319044	4.26025e-11	-0.275931	0.680656	0.236681	
45290	0.472713	-0.782391	1.00965	0.00130888	-0.0309521	1.92037e-10	-0.202735	0.681811	0.237083	
45680	0.48038	-0.78693	1.0166	0.00164945	-0.0316559	3.35491e-11	-0.276531	0.660902	0.159758	
45800	0.479964	-0.786716	1.01765	-0.00149112	-0.0332507	5.05228e-11	-0.275975	0.678829	0.153099	
46280	0.486096	-0.784774	1.01808	-0.000112282	-0.0308199	2.88029e-11	-0.228127	0.68107	0.240024	
46340	0.486412	-0.784812	1.01763	-0.00304425	-0.0314678	7.3676e-11	-0.275312	0.679867	0.153492	
46641	0.49144	-0.783236	1.01954	-0.00262363	-0.0329463	9.81947e-11	-0.279027	0.686373	0.233797	
46761	0.489316	-0.784903	1.01891	0.00374772	-0.0313333	1.2622e-10	-0.256038	0.679544	0.168293	
46790	0.489316	-0.784903	1.01891	0.00295759	-0.0295	2.1744e-11	-0.233242	0.681677	0.2416	
46821	0.489316	-0.784903	1.01891	0.00142695	-0.0303138	1.40203e-10	-0.243665	0.680976	0.233672	
46850	0.489316	-0.784903	1.01891	-0.00116743	-0.0315566	7.07053e-11	-0.271686	0.680215	0.235684	
46970	0.484055	-0.787547	1.01756	0.000332097	-0.0309973	5.68056e-11	-0.276832	0.680311	0.23669	
47060	0.491293	-0.784166	1.01674	0.00370622	-0.0294414	7.9453e-11	-0.210229	0.681542	0.240767	
47150	0.492587	-0.783112	1.01721	-6.93217e-05	-0.0321353	9.95144e-11	-0.269655	0.688166	0.236939	
47300	0.485439	-0.786999	1.0173	0.0412081	-0.0241087	0.00310383	-9.73154e+06	-3.61631e+06	905792	
47390	0.480719	-0.788149	1.01904	0.00288032	-0.0307031	1.39131e-10	-0.20224	0.680667	0.15992	
47570	0.482534	-0.788219	1.01747	0.00347515	-0.030237	3.27061e-11	-0.19189	0.680162	0.1817	
47751	0.485467	-0.785719	1.01784	-0.00241765	-0.0314449	5.78353e-11	-0.263544	0.679864	0.192784	
47841	0.477084	-0.789181	1.0185	0.000653709	-0.0303298	1.83035e-10	-0.285556	0.681335	0.305059	
48020	0.490011	-0.787526	1.02029	-0.0018796	-0.0328168	6.71827e-11	-0.269832	0.680331	0.159959	
48380	0.489807	-0.786859	1.01981	0.000352503	-0.0304633	4.52801e-11	-0.202228	0.681192	0.167704	
48500	0.48771	-0.787622	1.02019	0.0461077	-0.0426338	0.00778689	-4.90712e+06	-1.78589e+06	888914	
48770	0.479708	-0.788379	1.01805	0.00324463	-0.0313358	4.64132e-11	-0.263724	0.6793	0.193388	
49491	0.479213	-0.789252	1.02158	-0.0010012	-0.0318952	4.18269e-11	-0.19757	0.628122	0.154914	
49670	0.478965	-0.787537	1.01921	0.000744459	-0.0309621	7.25339e-11	-0.201563	0.680731	0.1727	
49820	0.476528	-0.789558	1.01857	0.000164285	-0.032435	9.24132e-11	-0.277039	0.679941	0.181202	
50001	0.482211	-0.78762	1.02049	-0.000409513	-0.0320968	9.55009e-11	-0.216178	0.680816	0.227383	
50150	0.487211	-0.785356	1.02005	0.00401898	-0.0302395	2.87718e-11	-0.270465	0.679221	0.159844	
50181	0.487211	-0.785356	1.02005	0.00376753	-0.0283385	7.18801e-11	-0.272638	0.680298	0.159734	
50390	0.484582	-0.78641	1.02037	0.00140886	-0.0324623	6.92094e-11	-0.201483	0.678053	0.153799	
50420	0.484582	-0.78641	1.02037	0.00314465	-0.0312992	9.59667e-11	-0.235695	0.680622	0.152328	
50480	0.480812	-0.786976	1.01784	0.00287515	-0.0312369	1.45572e-10	-0.269514	0.680303	0.24262	
50840	0.474328	-0.792327	1.02104	-0.00215054	-0.0326831	7.66926e-11	-0.271398	0.680401	0.159776	
51050	0.480634	-0.791145	1.01908	0.0646696	-0.0758933	0.0032741	2.35113e+07	5.7864e+06	-5.81548e+06	
51321	0.479055	-0.790739	1.01939	0.00275309	-0.0300033	5.89382e-11	-0.202838	0.682262	0.280658	
51531	0.480001	-0.794024	1.02158	0.00314995	-0.0304783	7.26818e-11	-0.198309	0.682646	0.302841	
51740	0.478745	-0.791721	1.02061	-0.0011163	-0.0330601	1.06948e-10	-0.239968	0.665359	0.237662	
51950	0.476847	-0.794868	1.02426	-0.0014736	-0.0328935	4.90496e-11	-0.202709	0.68161	0.163499	
52010	0.480281	-0.789303	1.02342	-0.00222746	-0.0329772	2.12137e-11	-0.234892	0.681077	0.235708	
52251	0.470789	-0.782297	1.00959	-0.00182381	-0.0326958	1.96158e-11	-0.257123	0.678736	0.163465	
52400	0.47235	-0.788536	1.01647	0.00311016	-0.0307785	7.14698e-11	-0.201526	0.680591	0.238233	
52670	0.474194	-0.787857	1.01707	0.00269466	-0.0296014	1.12388e-10	-0.202805	0.680479	0.234142	
52910	0.477613	-0.791254	1.01706	0.000779452	-0.0317275	4.45709e-11	-0.277076	0.681225	0.247616	
53000	0.477438	-0.789112	1.01708	0.00405167	-0.0290607	3.81395e-11	-0.277089	0.679593	0.158914	
53210	0.471829	-0.761106	1.02837	0.00129796	-0.0323203	7.75366e-11	-0.191092	0.68061	0.161535	
53480	0.46997	-0.789109	1.01995	0.00151929	-0.0312511	6.29687e-11	-0.208806	0.682316	0.233217	
53691	0.471044	-0.787197	1.0166	-0.00332355	-0.0336974	8.72915e-11	-0.243622	0.682026	0.242476	
53750	0.466406	-0.792118	1.01773	0.000462123	-0.0317543	7.05479e-11	-0.278896	0.670747	0.156773	
53900	0.474066	-0.789292	1.01798	0.00327456	-0.0295971	5.0233e-11	-0.279097	0.680607	0.239205	
54051	0.477111	-0.788196	1.01938	0.00169117	-0.0324988	5.72781e-11	-0.276904	0.665821	0.238659	
54110	0.469167	-0.7916	1.01966	0.0509966	-0.0414708	0.00149935	-2.32053e+07	-9.94503e+06	806104	
54141	0.469167	-0.7916	1.01966	0.00387893	-0.0305692	4.03158e-11	-0.28617	0.693004	0.19198	
54231	0.464515	-0.793661	1.02023	-0.00100739	-0.0318688	7.02411e-11	-0.275039	0.680611	0.234137	
54380	0.464646	-0.793113	1.02061	0.00280878	-0.0315441	1.3356e-10	-0.260175	0.67635	0.159	
54561	0.471013	-0.79082	1.01923	-0.00245952	-0.0311342	4.99204e-11	-0.277252	0.678969	0.166401	
54741	0.473367	-0.79273	1.0204	0.00308886	-0.0306494	1.60524e-10	-0.190955	0.682045	0.314753	
54920	0.470659	-0.79337	1.0207	0.00190297	-0.0310883	1.40577e-10	-0.288877	0.680728	0.203735	
55010	0.471221	-0.79051	1.01719	0.0022846	-0.0292007	4.30594e-11	-0.204194	0.680964	0.159479	
55190	0.47317	-0.788725	1.01687	0.00199452	-0.0306467	8.61863e-11	-0.283996	0.679736	0.168993	
55221	0.47317	-0.788725	1.01687	0.00347129	-0.0306532	5.87888e-11	-0.250433	0.680228	0.163302	
55490	0.477694	-0.787442	1.01828	0.00322736	-0.030856	7.06248e-11	-0.230144	0.680759	0.235416	
55850	0.471552	-0.786927	1.01639	0.00325772	-0.029438	1.93686e-10	-0.210787	0.681296	0.239119	
55940	0.474971	-0.78943	1.01458	-0.00209142	-0.0326555	6.73556e-11	-0.259522	0.6822	0.16037	
56001	0.475576	-0.788772	1.0151	0.000592964	-0.0317775	1.90275e-11	-0.208306	0.681966	0.12685	
56120	0.478796	-0.78848	1.01809	0.00322128	-0.0303936	1.26325e-10	-0.275975	0.681468	0.233936	
56151	0.478796	-0.78848	1.01809	0.000851947	-0.030401	6.05512e-11	-0.280376	0.679943	0.155259	
56241	0.472453	-0.789273	1.0161	-0.00241675	-0.0314558	3.40583e-11	-0.197202	0.681764	0.14191	
56301	0.469286	-0.792619	1.01562	0.00236325	-0.030404	7.32057e-11	-0.26849	0.680635	0.244019	
56360	0.475034	-0.790776	1.01687	0.00330201	-0.030248	1.16686e-10	-0.195807	0.597554	0.149598	
56510	0.466045	-0.792562	1.01138	-0.00303952	-0.0334177	5.26726e-11	-0.276679	0.689866	0.159614	
56570	0.461169	-0.794831	1.00895	-0.00132217	-0.0333004	1.2945e-10	-0.261987	0.680358	0.159815	
56840	0.471973	-0.792614	1.00357	0.00041726	-0.0331484	7.6195e-11	-0.201719	0.682019	0.317479	
57020	0.462101	-0.795194	1.006	0.00112707	-0.0304497	1.20152e-10	-0.217048	0.679902	0.160203	
57050	0.462101	-0.795194	1.006	-0.00130172	-0.0319894	5.53105e-11	-0.196004	0.682307	0.15364	
57500	0.46219	-0.796322	1.0022	0.00369174	-0.0305774	1.25584e-10	-0.227959	0.681515	0.299008	
57890	0.472888	-0.79147	1.01774	-0.00141433	-0.0322003	7.11238e-11	-0.282536	0.679313	0.169342	
57920	0.472888	-0.79147	1.01774	-0.00171831	-0.0319801	3.43648e-11	-0.196546	0.681224	0.163642	
58100	0.470999	-0.790781	1.01933	0.00385033	-0.0298792	1.1383e-10	-0.241394	0.681033	0.237146	
58130	0.470999	-0.790781	1.01933	0.00253229	-0.0308317	1.13312e-10	-0.208273	0.681318	0.222181	
58550	0.475615	-0.788899	1.01943	0.000774653	-0.0318215	6.5578e-11	-0.210784	0.680223	0.218593	
59060	0.473373	-0.79128	1.01963	-0.00259509	-0.0327081	1.20732e-10	-0.279064	0.680124	0.236729	
59120	0.472233	-0.793027	1.02024	-0.000812741	-0.0313723	1.2089e-10	-0.211062	0.682395	0.23704	
59301	0.470556	-0.79091	1.01997	-0.0018812	-0.0327777	3.59203e-11	-0.28815	0.680571	0.239469	
59540	0.475913	-0.787207	1.01984	0.00167068	-0.0308624	1.62672e-10	-0.278469	0.679442	0.235756	
59660	0.469846	-0.790883	1.0179	-0.000336322	-0.0330182	5.89906e-11	-0.252506	0.680031	0.218484	
59960	0.468606	-0.790267	1.01753	0.000562524	-0.032112	9.96935e-11	-0.254475	0.680823	0.237365	
59990	0.468606	-0.790267	1.01753	0.00292841	-0.0305652	4.2737e-11	-0.202387	0.682089	0.237428	
60170	0.463774	-0.791486	1.01801	-0.00130046	-0.0307267	1.06603e-10	-0.258481	0.679986	0.236896	
60290	0.466193	-0.791239	1.01745	0.00383583	-0.0287387	3.7109e-11	-0.284325	0.678583	0.176709	
60350	0.470567	-0.791063	1.01966	0.00323035	-0.0299554	9.68458e-11	-0.279084	0.680334	0.179344	
60441	0.470097	-0.790926	1.018	0.0281006	0.00804604	0.000864287	4.48555e+06	1.40011e+06	210645	
60800	0.462305	-0.793201	1.01777	0.00100973	-0.0318516	1.06517e-11	-0.202369	0.681762	0.177528	
61310	0.471677	-0.790501	1.01636	-0.00237775	-0.03365	1.2233e-10	-0.250225	0.681483	0.313666	
61370	0.472866	-0.790394	1.0165	0.00205062	-0.0318	8.4792e-11	-0.202392	0.681555	0.314045	
61461	0.467975	-0.790618	1.01808	0.00301845	-0.0297866	5.92914e-11	-0.208684	0.681636	0.329396	
61730	0.468328	-0.79167	1.01982	0.00269107	-0.029894	4.50202e-11	-0.216376	0.680295	0.166742	
61880	0.479393	-0.790428	1.02046	-0.00110843	-0.0327642	8.28004e-11	-0.277485	0.679161	0.162354	
61941	0.478597	-0.790846	1.02015	0.00105421	-0.0320387	5.77402e-11	-0.27706	0.68017	0.17497	
62030	0.47432	-0.789585	1.01936	0.00328235	-0.030522	2.81114e-11	-0.203265	0.6818	0.312349	
62210	0.467223	-0.791798	1.02022	-0.000323594	-0.0314034	9.41807e-11	-0.28266	0.680142	0.19621	
62570	0.482747	-0.747702	1.02702	0.00348164	-0.0312011	9.29294e-11	-0.276987	0.595762	0.23828	
62780	0.476299	-0.750127	1.0338	0.00240347	-0.0314173	1.06649e-10	-0.265904	0.679555	0.187104	
62811	0.476299	-0.750127	1.0338	0.00396862	-0.0307572	5.39143e-11	-0.204774	0.682076	0.224643	
63110	0.467317	-0.790947	1.01718	0.00354442	-0.0309277	1.06487e-10	-0.287957	0.680565	0.236637	
63350	0.468596	-0.794379	1.02087	0.00377902	-0.0321456	1.02056e-10	-0.267819	0.681451	0.309259	
63380	0.468596	-0.794379	1.02087	0.00398436	-0.0307186	1.15381e-10	-0.210577	0.681841	0.320502	
63440	0.472731	-0.792643	1.02064	0.00280518	-0.0311347	7.68338e-11	-0.282313	0.680964	0.23283	
63471	0.472731	-0.792643	1.02064	-3.42014e-05	-0.0317173	5.91201e-11	-0.260282	0.679601	0.197067	
63590	0.468417	-0.794367	1.02087	-0.000796447	-0.0326105	9.32015e-11	-0.280644	0.680523	0.221908	
63770	0.477416	-0.789332	1.02083	-0.000575834	-0.0315854	1.32135e-10	-0.283185	0.679193	0.169404	
64190	0.474935	-0.789521	1.01887	0.00179286	-0.0322501	1.43227e-10	-0.276316	0.681223	0.238711	
64341	0.468745	-0.790874	1.01677	-0.00234332	-0.0310381	1.34963e-10	-0.214291	0.681525	0.236777	
64491	0.470681	-0.790718	1.01828	0.00420794	-0.0301558	4.32444e-11	-0.207778	0.680451	0.160165	
65061	0.476328	-0.788008	1.02244	0.00334211	-0.0302532	1.11888e-10	-0.210343	0.679749	0.1776	
65211	0.481692	-0.787753	1.02096	-0.00253051	-0.0325749	6.3305e-11	-0.201312	0.675408	0.234463	
65360	0.481651	-0.789931	1.0197	0.00372063	-0.0289961	5.83657e-11	-0.202303	0.681161	0.24319	
65451	0.478053	-0.792658	1.01893	-0.00229328	-0.0310192	2.5405e-11	-0.234524	0.679016	0.169366	
65990	0.479606	-0.79153	1.02209	0.000959823	-0.0298028	3.92597e-11	-0.203509	0.68238	0.327165	
66140	0.476979	-0.785908	1.01999	0.00360663	-0.0296912	8.79192e-11	-0.279692	0.67997	0.24422	
66200	0.475644	-0.78943	1.01904	0.00355515	-0.0292888	1.55691e-10	-0.210881	0.648598	0.273142	
66290	0.472854	-0.791537	1.02153	-0.00163785	-0.0312751	1.13839e-10	-0.202302	0.682646	0.237164	
66350	0.476055	-0.789469	1.02129	-0.00213908	-0.0334392	9.25746e-11	-0.201934	0.665995	0.237371	
66380	0.476055	-0.789469	1.02129	1.46286e-05	-0.0326817	1.28744e-10	-0.234024	0.596882	0.238414	
66500	0.477126	-0.789702	1.01929	0.00333611	-0.0308215	6.43746e-11	-0.188387	0.61426	0.238424	
66531	0.477126	-0.789702	1.01929	0.00217327	-0.0308752	1.06966e-10	-0.208168	0.598578	0.222847	
66620	0.47906	-0.788464	1.02079	-0.00177338	-0.0322644	9.80439e-11	-0.21023	0.682017	0.233438	
66891	0.478801	-0.788546	1.01954	0.0274611	0.0367949	0.00284537	3.33303e+07	9.22289e+06	-1.44125e+06	
66950	0.478327	-0.791399	1.0223	-0.000560007	-0.0327743	3.3548e-11	-0.277855	0.680054	0.159752	
67220	0.482607	-0.791367	1.01998	-0.0018409	-0.0321186	1.1103e-10	-0.219991	0.68125	0.308416	
67431	0.477761	-0.789672	1.01961	-0.00252653	-0.0324926	3.76842e-11	-0.210689	0.68117	0.157018	
67491	0.478721	-0.787663	1.02171	-0.000192347	-0.032969	5.27374e-11	-0.197748	0.680809	0.15981	
67640	0.469931	-0.793224	1.02177	0.00203976	-0.0305689	1.1011e-10	-0.26738	0.682365	0.15958	
67761	0.474766	-0.78771	1.0197	-0.00148975	-0.0314151	3.55689e-11	-0.201579	0.68092	0.237126	
67821	0.474846	-0.789372	1.02033	0.00175559	-0.03085	1.9189e-10	-0.202292	0.681081	0.236901	
67910	0.473926	-0.791138	1.02145	0.00158975	-0.0322637	1.99928e-11	-0.203073	0.680953	0.222143	
68030	0.476055	-0.7901	1.01948	-0.00197969	-0.0338916	8.95994e-11	-0.203913	0.690641	0.142221	
68180	0.473559	-0.791377	1.02192	0.0036369	-0.0305942	1.34622e-10	-0.28123	0.68053	0.1662	
68210	0.473559	-0.791377	1.02192	0.00245138	-0.0308935	5.22662e-11	-0.300005	0.678468	0.158382	
68301	0.475626	-0.790972	1.02151	-0.00215717	-0.0327091	5.40082e-11	-0.202571	0.681347	0.163661	
68450	0.48184	-0.787206	1.02145	0.00309126	-0.0289293	3.53562e-11	-0.203582	0.681308	0.235708	
68480	0.48184	-0.787206	1.02145	0.00181601	-0.0292462	1.28612e-10	-0.20236	0.681259	0.238171	
68690	0.469906	-0.792842	1.01946	0.00242988	-0.0305459	5.02018e-11	-0.244988	0.680235	0.239056	
68750	0.470132	-0.79232	1.02168	0.00110828	-0.0314646	1.12549e-10	-0.202495	0.688069	0.234477	
69290	0.472427	-0.791559	1.0206	0.00373206	-0.030504	2.09917e-10	-0.260536	0.679868	0.241284	
69320	0.472427	-0.791559	1.0206	0.00197679	-0.0308545	3.51303e-11	-0.237042	0.680118	0.167287	
69380	0.475113	-0.789218	1.0192	-0.00180668	-0.0313443	6.37866e-11	-0.250994	0.679964	0.193293	
69650	0.478525	-0.788069	1.02082	-0.00134063	-0.0314645	1.20748e-10	-0.269351	0.680615	0.160998	
69830	0.474706	-0.794211	1.02039	0.00358504	-0.0299029	9.00953e-11	-0.276006	0.680918	0.158062	
70190	0.478613	-0.78791	1.02168	0.0316506	0.0209236	-0.062059	1.35942e+07	-1.19383e+06	-3.33962e+06	
70280	0.475556	-0.791675	1.02206	-0.0017224	-0.0335196	1.44709e-10	-0.288184	0.62725	0.160787	
70460	0.469901	-0.791736	1.02091	0.00099463	-0.0317358	6.01496e-11	-0.269044	0.612328	0.15423	
70610	0.476756	-0.793084	1.02193	0.00161739	-0.0322377	5.12039e-11	-0.269283	0.678517	0.155163	
70670	0.477998	-0.790095	1.02068	0.00458818	-0.0304263	1.22492e-10	-0.277644	0.680483	0.194432	
70940	0.476347	-0.787719	1.02043	0.00295127	-0.0307236	2.6455e-10	-0.203088	0.681384	0.31494	
71000	0.478063	-0.789454	1.01921	0.00181511	-0.0311355	1.00991e-10	-0.195801	0.63138	0.210397	
71031	0.478063	-0.789454	1.01921	0.00181511	-0.0311355	2.9666e-10	-0.195801	0.63138	0.210397	
71060	0.478063	-0.789454	1.01921	-0.00150488	-0.0323727	1.57552e-10	-0.204594	0.68238	0.228336	
71270	0.477153	-0.788821	1.02289	0.00146347	-0.0308869	1.56598e-10	-0.246134	0.680053	0.208798	
71570	0.474699	-0.791025	1.01988	0.000658622	-0.0297526	7.89313e-11	-0.203207	0.681952	0.239186	
71601	0.474699	-0.791025	1.01988	-0.00105592	-0.0316311	1.76901e-10	-0.20308	0.680205	0.245695	
71690	0.481423	-0.787532	1.02195	-0.000128944	-0.0324519	8.53568e-11	-0.200857	0.676673	0.237102	
71900	0.470911	-0.790822	1.01923	-0.00258119	-0.0319795	7.30008e-11	-0.203304	0.683565	0.270373	
72140	0.470795	-0.792076	1.0201	1.47924e-05	-0.0307735	6.11147e-11	-0.223474	0.681442	0.203716	
72200	0.470733	-0.791435	1.01972	-0.00237268	-0.0306103	1.02098e-10	-0.194165	0.681438	0.24309	
72320	0.475292	-0.789271	1.02101	0.00344457	-0.0287422	7.62061e-11	-0.203587	0.692931	0.230928	
72530	0.474609	-0.790007	1.01936	0.000302456	-0.032076	9.99651e-11	-0.183391	0.633592	0.238012	
72741	0.475462	-0.790865	1.0199	-0.00185707	-0.0322839	1.36979e-10	-0.202944	0.681702	0.304397	
72980	0.475313	-0.794048	1.02223	0.000107084	-0.0324975	1.84835e-10	-0.203485	0.680844	0.236968	
73070	0.474397	-0.791811	1.02159	-0.00183671	-0.0313345	1.51028e-10	-0.217692	0.681288	0.22883	
73100	0.474397	-0.791811	1.02159	-4.35814e-05	-0.0312508	1.41692e-11	-0.190121	0.666434	0.236154	
73250	0.470808	-0.791154	1.01944	-0.00097045	-0.0323658	2.01998e-11	-0.201762	0.672459	0.224442	
73280	0.470808	-0.791154	1.01944	-0.00139433	-0.0330703	9.20683e-11	-0.218846	0.612513	0.236073	
73371	0.47488	-0.792873	1.02244	0.00104693	-0.0316521	8.37627e-11	-0.282448	0.678486	0.155116	
73400	0.47488	-0.792873	1.02244	0.00171245	-0.0316063	9.7905e-11	-0.281176	0.679702	0.191971	
73610	0.473085	-0.791615	1.01972	0.00647065	0.0556226	-0.00800082	1.49316e+07	1.12757e+06	4.0148e+06	
73971	0.474959	-0.791155	1.01959	0.0029521	-0.0306528	1.28066e-10	-0.211531	0.667848	0.23716	
74031	0.471624	-0.791419	1.0188	0.00402414	-0.0305422	1.09636e-10	-0.203254	0.684354	0.203031	
74361	0.473606	-0.790451	1.02081	0.00072411	-0.0313474	9.23857e-11	-0.289474	0.665826	0.236886	
74631	0.47268	-0.791359	1.02174	0.000986181	-0.0312346	4.47442e-11	-0.276461	0.680365	0.248579	
74840	0.477086	-0.789015	1.02092	0.00387582	-0.0286664	1.12986e-10	-0.230259	0.681093	0.235387	
75260	0.468934	-0.794105	1.01962	-0.00240501	-0.0332924	1.06567e-10	-0.251106	0.680969	0.236815	
75380	0.465421	-0.794307	1.0194	0.00423994	-0.0309373	5.7654e-11	-0.277157	0.680516	0.16015	
75590	0.468162	-0.793472	1.01913	0.000274331	-0.0322502	4.27956e-11	-0.277604	0.679606	0.158502	
76010	0.472121	-0.79339	1.01853	0.00345762	-0.0295117	1.49275e-10	-0.245901	0.680416	0.236944	
76190	0.468941	-0.794055	1.02238	0.0593991	-0.0464167	0.0620102	-1.31019e+07	-8.65442e+06	1.57372e+07	
76521	0.467248	-0.797864	1.02257	0.0038873	-0.0303527	2.45082e-11	-0.213377	0.68066	0.163388	
77000	0.466777	-0.7931	1.02036	0.00189128	-0.032376	6.18073e-11	-0.203806	0.681502	0.206024	
77150	0.480455	-0.789383	1.02021	0.0025597	-0.030859	8.7152e-11	-0.276193	0.672217	0.242089	
77241	0.482165	-0.789013	1.01991	-0.00229599	-0.0328865	6.62209e-11	-0.211261	0.680799	0.169797	
77360	0.479352	-0.789332	1.0214	0.00468007	-0.0299809	1.34629e-10	-0.20919	0.681309	0.236192	
77450	0.47089	-0.792346	1.02174	-0.000528378	-0.0317872	1.065e-10	-0.277198	0.680205	0.236666	
77540	0.4729	-0.79123	1.02136	-0.00239235	-0.031658	1.15524e-10	-0.277691	0.679666	0.183372	
77571	0.4729	-0.79123	1.02136	-0.000173464	-0.0311308	6.03303e-11	-0.276229	0.680047	0.223446	
77630	0.475827	-0.791853	1.02276	0.00314697	-0.0309628	7.29331e-11	-0.276964	0.679467	0.187008	
77751	0.474711	-0.791528	1.02021	-0.0027521	-0.0320862	5.36983e-11	-0.275828	0.679457	0.162722	
77810	0.478943	-0.792532	1.02199	-0.00269724	-0.0327151	1.39077e-10	-0.276346	0.679174	0.165567	
78200	0.474632	-0.79161	1.02154	0.00458754	-0.0302492	5.6901e-11	-0.205354	0.682053	0.237088	
78230	0.474632	-0.79161	1.02154	0.00458754	-0.0302492	2.7028e-10	-0.205354	0.682053	0.237088	
78260	0.474632	-0.79161	1.02154	0.00223729	-0.0303704	1.13802e-10	-0.203949	0.681536	0.237088	
78290	0.474632	-0.79161	1.02154	-0.000313933	-0.0326228	1.56263e-10	-0.217109	0.682162	0.289376	
78320	0.474632	-0.79161	1.02154	-0.000313933	-0.0326228	4.16701e-10	-0.217109	0.682162	0.289376	
78470	0.468544	-0.792988	1.01936	0.00325524	-0.0311405	5.09392e-11	-0.201094	0.682059	0.242568	
78531	0.46823	-0.792938	1.01908	0.00334493	-0.0300793	1.19598e-10	-0.256459	0.679801	0.234506	
78590	0.473789	-0.791375	1.01975	-0.000961586	-0.0316943	1.06439e-10	-0.239395	0.680148	0.236532	
78620	0.473789	-0.791375	1.01975	-0.00196277	-0.032986	1.49411e-10	-0.210556	0.681467	0.23716	
78680	0.475678	-0.792362	1.02212	-0.00115328	-0.0327473	1.27854e-10	-0.263359	0.680677	0.236767	
78981	0.472116	-0.792314	1.01973	0.00131347	-0.0309117	5.03708e-11	-0.27694	0.680255	0.239861	
79010	0.472116	-0.792314	1.01973	0.00130037	-0.0306033	1.65042e-10	-0.278905	0.68122	0.239191	
79041	0.472116	-0.792314	1.01973	0.00370184	-0.0304413	1.28304e-10	-0.276316	0.680644	0.2376	
79160	0.470473	-0.792172	1.01951	-0.00136243	-0.03164	6.4037e-11	-0.203649	0.682136	0.237174	
79190	0.470473	-0.792172	1.01951	-0.00211189	-0.0327983	1.01852e-10	-0.202973	0.681073	0.242505	
79220	0.470473	-0.792172	1.01951	-0.00208037	-0.0323088	1.38627e-10	-0.20165	0.681265	0.243204	
79460	0.477907	-0.788513	1.02199	-0.000898312	-0.0323352	1.40779e-10	-0.132336	0.682536	0.260703	
79581	0.478619	-0.789058	1.01774	0.00360138	-0.0309364	1.13556e-10	-0.231152	0.680618	0.236575	
79640	0.476832	-0.789591	1.02144	0.00314072	-0.0291665	1.46572e-10	-0.262418	0.680153	0.244287	
79731	0.475884	-0.790687	1.02185	-0.00257732	-0.0310088	9.6542e-11	-0.203378	0.681828	0.292551	
79970	0.471479	-0.790917	1.02031	0.00167039	-0.0301992	1.50955e-10	-0.274161	0.679613	0.251592	
80000	0.471479	-0.790917	1.02031	-0.00153608	-0.032577	8.5293e-11	-0.277674	0.681217	0.236925	
80060	0.475493	-0.787996	1.02026	-0.00141648	-0.0328063	9.24231e-11	-0.217687	0.681981	0.236982	
80150	0.463242	-0.794478	1.01931	0.00245564	-0.0316847	1.12712e-10	-0.241967	0.680022	0.250471	
80181	0.463242	-0.794478	1.01931	0.00387845	-0.0312477	1.01593e-10	-0.290724	0.680338	0.241888	
80270	0.467772	-0.792855	1.01956	0.000976663	-0.0307548	2.18462e-10	-0.27779	0.67995	0.242735	
80480	0.475078	-0.790823	1.02156	0.00333548	-0.0306262	1.20693e-10	-0.282604	0.679259	0.236652	
80630	0.470908	-0.791676	1.01937	-0.00202353	-0.0323317	2.52971e-10	-0.276794	0.681264	0.31231	
80870	0.478422	-0.789388	1.01866	-0.00232629	-0.031747	7.77774e-11	-0.187374	0.680478	0.235689	
80990	0.481922	-0.791402	1.02199	0.00430378	-0.0293658	9.55336e-11	-0.262077	0.680028	0.244958	
81201	0.473768	-0.788764	1.02187	0.000966537	-0.0324789	1.75885e-10	-0.26413	0.682393	0.254906	
81350	0.47583	-0.793317	1.02108	0.019489	-0.11563	0.00535168	-5.27636e+07	-1.16679e+07	-6.71642e+06	
81410	0.469422	-0.79068	1.02026	-0.00201687	-0.0333187	5.58349e-11	-0.264208	0.680651	0.310194	
81440	0.469422	-0.79068	1.02026	-0.00220693	-0.033089	1.8105e-10	-0.196792	0.682651	0.317632	
81650	0.469194	-0.792222	1.01947	0.0434343	-0.0168602	0.00104508	-8.78637e+06	-9.44979e+06	1.47137e+06	
81681	0.469194	-0.792222	1.01947	-0.00236342	-0.0323043	1.40842e-11	-0.295344	0.68051	0.234736	
81860	0.480095	-0.787278	1.02168	0.00422201	-0.0289283	2.05937e-10	-0.264505	0.67992	0.236709	
81920	0.474891	-0.793486	1.02192	0.00274297	-0.0299332	7.1053e-11	-0.244735	0.681019	0.236843	
82040	0.47224	-0.792845	1.01979	0.00123452	-0.0318184	3.7683e-11	-0.266786	0.680676	0.314025	
82190	0.476648	-0.791251	1.01916	0.00124531	-0.0301573	7.53957e-12	-0.282422	0.681273	0.251319	
82280	0.475109	-0.791771	1.0196	-0.00277148	-0.0322936	1.26067e-10	-0.198572	0.683401	0.233457	
82430	0.471757	-0.792938	1.01972	0.00282754	-0.031626	1.42238e-11	-0.274605	0.680669	0.237064	
82460	0.471757	-0.792938	1.01972	0.000981991	-0.0323427	1.13013e-10	-0.211514	0.681536	0.235445	
82490	0.471757	-0.792938	1.01972	-0.00100023	-0.0327947	4.98699e-11	-0.200905	0.681227	0.237476	
82550	0.473096	-0.790892	1.01991	-0.00165268	-0.0317652	3.79572e-11	-0.27617	0.679923	0.253048	
82700	0.467594	-0.793655	1.01903	0.00348139	-0.0295679	2.66584e-10	-0.275512	0.680582	0.306419	
82790	0.473905	-0.791996	1.01988	-0.00100791	-0.0307171	1.69615e-10	-0.201931	0.682089	0.314102	
82820	0.473905	-0.791996	1.01988	-0.00353911	-0.0325441	7.89679e-11	-0.201198	0.683679	0.329033	
83001	0.476439	-0.788219	1.01937	0.00882979	0.0107235	0.00622433	-1.24792e+07	6.20467e+06	3.58169e+06	
83061	0.466627	-0.793953	1.0197	0.000721318	-0.0309944	1.50929e-10	-0.202149	0.682157	0.279499	
83090	0.466627	-0.793953	1.0197	-0.00208911	-0.0329141	5.50708e-11	-0.202947	0.681816	0.305949	
83211	0.473648	-0.790354	1.02173	0.00234837	-0.03131	2.52879e-10	-0.219796	0.681822	0.312196	
83270	0.475377	-0.788578	1.02224	0.00269094	-0.0307047	1.31945e-10	-0.202278	0.683146	0.314155	
83390	0.475807	-0.790979	1.01692	-0.00230869	-0.0328237	1.77712e-10	-0.207417	0.681161	0.236949	
83510	0.476864	-0.788875	1.02205	0.00390992	-0.0313152	6.73466e-11	-0.266458	0.679954	0.249432	
83630	0.467594	-0.7931	1.01993	-0.0011154	-0.0325636	6.7485e-11	-0.262463	0.680133	0.22495	
83690	0.46622	-0.79383	1.01943	-0.00294192	-0.0325654	1.4922e-10	-0.24089	0.680783	0.236858	
83720	0.46622	-0.79383	1.01943	-0.00294192	-0.0325654	3.62393e-10	-0.24089	0.680783	0.236858	
83840	0.473689	-0.791428	1.01915	0.00233325	-0.0309345	9.25221e-11	-0.196305	0.681673	0.237236	
83870	0.473689	-0.791428	1.01915	0.00165357	-0.0316049	3.55345e-11	-0.205406	0.681842	0.236896	
83960	0.476649	-0.7907	1.02017	-0.00298371	-0.0319435	1.91688e-10	-0.282055	0.679778	0.236652	
84441	0.4731	-0.794181	1.0235	-0.00193006	-0.0322556	1.06304e-10	-0.228342	0.691291	0.23623	
84470	0.4731	-0.794181	1.0235	-0.00188229	-0.0314572	2.84316e-11	-0.209827	0.679416	0.23693	
84501	0.4731	-0.794181	1.0235	-0.00322198	-0.0323162	6.3984e-11	-0.216676	0.681208	0.236978	
84561	0.476014	-0.791275	1.02164	-0.00143506	-0.0314907	1.56254e-10	-0.266776	0.680777	0.236748	
84590	0.476014	-0.791275	1.02164	-0.00143506	-0.0314907	3.69327e-10	-0.266776	0.680777	0.236748	
84621	0.476014	-0.791275	1.02164	-0.00143506	-0.0314907	5.89502e-10	-0.266776	0.680777	0.236748	
84890	0.480838	-0.787172	1.02205	0.00296559	-0.0303667	1.33357e-10	-0.250605	0.681509	0.317517	
85100	0.472889	-0.790603	1.02065	-0.00243977	-0.0323336	1.06498e-10	-0.271181	0.679835	0.236661	
85310	0.470288	-0.792047	1.02183	-0.000570646	-0.031114	6.39736e-11	-0.280762	0.679916	0.236939	
85430	0.465873	-0.793434	1.01982	0.00272837	-0.0307794	3.53215e-11	-0.277359	0.679813	0.168197	
85460	0.465873	-0.793434	1.01982	0.00360533	-0.0303258	6.34019e-11	-0.212108	0.681341	0.234822	
85581	0.473096	-0.794186	1.02321	-0.00164216	-0.0322829	9.94059e-11	-0.202979	0.681819	0.236681	
85610	0.473096	-0.794186	1.02321	-0.00235468	-0.0332932	1.35178e-10	-0.202649	0.681111	0.237155	
85731	0.475096	-0.787338	1.01883	0.00363173	-0.0313128	7.10042e-11	-0.278854	0.680847	0.236681	
85820	0.475407	-0.789899	1.01941	0.00177269	-0.029729	4.94394e-11	-0.288441	0.680758	0.235426	
85880	0.473294	-0.792521	1.01875	-0.000804237	-0.0319777	9.41599e-11	-0.27658	0.680812	0.261555	
86150	0.461115	-0.799455	1.02347	0.000869499	-0.0313427	7.74628e-11	-0.276803	0.679769	0.234736	
86450	0.475204	-0.792165	1.02161	-0.000799495	-0.0322383	1.38951e-10	-0.278763	0.680034	0.220558	
87050	0.470322	-0.794351	1.02277	-0.00253118	-0.0330531	5.87508e-11	-0.203385	0.681274	0.244795	
87290	0.476379	-0.793391	1.02245	-0.000959203	-0.0319122	4.81816e-11	-0.277237	0.677802	0.160605	
87590	0.475343	-0.791821	1.02021	0.01238	0.00158435	-0.0151717	858498	-319707	1.53145e+06	
87770	0.472029	-0.79323	1.01967	0.00430543	-0.0297383	1.44184e-10	-0.275802	0.663699	0.228864	
87980	0.475249	-0.789374	1.02048	0.00117633	-0.0315425	8.33072e-11	-0.208959	0.682221	0.308545	
88250	0.478145	-0.789283	1.02034	-0.00102052	-0.0323097	1.03822e-10	-0.260104	0.679251	0.203572	
88760	0.473454	-0.791689	1.02054	-0.00305005	-0.0312735	1.98703e-10	-0.276607	0.680338	0.236551	
88790	0.473454	-0.791689	1.02054	-0.000581229	-0.0314401	3.55775e-11	-0.211199	0.681487	0.237184	
89031	0.474665	-0.791807	1.01955	-0.00206971	-0.0320952	2.72964e-10	-0.270434	0.681264	0.313752	
89180	0.468368	-0.791071	1.01999	0.0938878	-0.155678	-0.116533	-1.74976e+07	-9.66366e+06	-1.74574e+07	
89300	0.468885	-0.793656	1.01992	-0.00193491	-0.0322535	1.13499e-10	-0.217806	0.680507	0.236456	
89480	0.471792	-0.791165	1.01899	0.0024617	-0.0303749	9.31852e-11	-0.212092	0.682151	0.238937	
89540	0.473329	-0.792811	1.02015	0.00105201	-0.030688	1.27758e-10	-0.281624	0.680112	0.236589	
89840	0.473846	-0.791905	1.01955	-0.00134143	-0.0322351	1.48922e-10	-0.230599	0.681782	0.236384	
90381	0.481178	-0.786858	1.01968	0.000118144	-0.0312638	1.42273e-11	-0.211029	0.6768	0.237122	
91370	0.479437	-0.789261	1.01879	0.00188394	-0.0311479	1.56307e-10	-0.235813	0.686791	0.236829	
91670	0.474079	-0.791391	1.01967	0.00410099	-0.0311103	4.84144e-11	-0.272521	0.67929	0.161381	
91790	0.480612	-0.789798	1.02042	-0.00062162	-0.031186	4.23645e-11	-0.287555	0.680004	0.235359	
91880	0.47618	-0.789085	1.02162	-0.000893614	-0.0314001	1.4935e-10	-0.203891	0.680944	0.237064	
91970	0.469291	-0.791986	1.02225	0.00414477	-0.0302242	1.20951e-10	-0.191528	0.681137	0.23716	
92090	0.474254	-0.792535	1.02272	-0.00209219	-0.0327991	8.53844e-11	-0.295862	0.646413	0.237179	
92180	0.470769	-0.792059	1.01902	-0.000646106	-0.0317652	1.84719e-10	-0.256518	0.680109	0.236819	
92210	0.470769	-0.792059	1.01902	0.00178421	-0.0321165	7.11063e-12	-0.217397	0.680117	0.237021	
92390	0.468174	-0.792701	1.01941	-0.0030505	-0.0330158	7.0984e-11	-0.275774	0.681524	0.236613	
92720	0.4729	-0.7911	1.02198	-0.00111309	-0.0336724	1.34845e-10	-0.284387	0.681193	0.23657	
92990	0.4797	-0.789236	1.02192	-0.000496393	-0.0325533	4.26482e-11	-0.231145	0.681159	0.236934	
93710	0.473452	-0.790826	1.0186	0.00183038	-0.0310644	3.54862e-11	-0.209154	0.680234	0.147859	
93830	0.477881	-0.789055	1.01837	-0.00168733	-0.03249	6.97711e-11	-0.258772	0.680372	0.211428	
93920	0.476454	-0.790077	1.01973	0.00398844	-0.030177	6.20077e-11	-0.275567	0.68052	0.229658	
94400	0.475965	-0.791576	1.02016	0.00219717	-0.0244142	6.40137e-11	-0.202028	0.681266	0.237088	
94791	0.472219	-0.793473	1.02018	0.00150108	-0.0166799	5.3454e-11	-0.134885	0.511115	0.254543	
94880	0.477859	-0.789717	1.02213	0.00139932	-0.0155494	7.47344e-11	-0.112529	0.428184	0.155697	
94940	0.472882	-0.791819	1.02016	0.00124691	-0.0138561	1.00097e-10	-0.0702548	0.596763	0.303324	
95210	0.475146	-0.789596	1.02166	0.000995092	-0.011058	8.46616e-11	-0.167245	0.4759	0.282205	
95630	0.485578	-0.788078	1.01912	0.000627411	-0.00697262	3.57911e-11	-0.324402	0.238207	0.198839	
95900	0.473973	-0.791567	1.01928	0.000488308	-0.00542681	3.66014e-11	-0.177977	0.784379	0.24401	
96171	0.473533	-0.791254	1.01968	0.000374369	-0.00416077	1.37747e-10	-0.362833	0.592598	0.270092	
96291	0.473931	-0.790747	1.01844	0.00033192	-0.00368917	1.13508e-10	-0.0650593	0.606235	0.25224	
96350	0.467909	-0.79216	1.01919	0.00030481	-0.00338778	1.62755e-10	-0.288259	0.634076	0.542518	
96381	0.467909	-0.79216	1.01919	0.00029877	-0.00332063	1.46524e-10	-0.2921	0.472513	0.287301	
96440	0.470699	-0.791185	1.01731	0.000282758	-0.00314247	2.63242e-11	-0.181865	0.611726	0.175495	
96530	0.468921	-0.791908	1.01764	0.000258455	-0.00287106	-6.17275e-11	-0.105299	0.474174	-0.257198	
96770	0.459199	-0.793944	1.02165	0.000199215	-0.00221231	-3.39301e-10	-0.391383	0.360669	-1.25667	
96890	0.42477	-0.77045	1.02201	0.000177498	-0.00197172	-3.48617e-11	-0.219522	0.546743	-1.16206	
97010	0.403494	-0.778552	0.976618	0.0673626	-0.295261	-0.352374	-1.04565e+08	-1.08574e+07	-1.21487e+08	
97161	0.408015	-0.789924	0.919677	0.100044	0.0613812	-1.12998e-09	-0.0419429	0.621331	-2.21565	
97310	0.366402	-0.82201	0.781644	-0.0531195	0.0133953	-3.60599e-10	-0.0946508	0.513368	-0.546363	
97430	0.397553	-0.916609	0.680754	0.0428687	0.0430796	1.11043e-09	-0.263259	0.605962	1.60932	
98031	0.230294	-0.903964	0.188568	0.147207	-0.041241	3.32563e-10	-0.218934	0.703644	1.10854	
98241	0.185999	-0.919509	0.239087	-0.0521154	0.118248	0.369422	-4.55522e+07	9.97287e+06	4.70734e+07	
98330	0.16771	-0.915033	0.261407	0.0471275	-0.0183416	-6.5304e-10	-0.229399	0.560738	-1.20933	
98420	0.155543	-0.920346	0.277667	0.0218224	0.00354095	-2.08001e-10	-0.213008	0.54314	-1.15556	
98600	0.149871	-0.905333	0.307342	0.00249486	0.0147978	-2.92795e-11	-0.134671	0.56543	-0.0975982	
98660	0.143166	-0.914112	0.307729	0.151615	-0.124612	0.00733526	-6.51831e+07	-8.53397e+07	3.76167e+06	
98840	0.137752	-0.908212	0.293218	-0.00646513	0.0313082	3.06453e-10	-0.263447	0.568308	0.537637	
98900	0.123462	-0.901769	0.286784	-0.00626314	0.0241708	2.12307e-10	-0.38349	0.58987	0.589742	
98961	0.127742	-0.901913	0.283434	-0.0086629	0.0346882	3.46201e-10	-0.243752	0.55667	0.607371	
99261	0.127509	-0.904614	0.27844	-0.00308552	0.02925	2.95773e-11	-0.159424	0.58082	0.0821592	
99470	0.134151	-0.899557	0.284039	0.0129354	0.0283334	3.30271e-11	-0.169506	0.55607	0.183484	
99501	0.134151	-0.899557	0.284039	0.0205261	0.0239	1.3151e-12	-0.203315	0.523065	0.00876732	
99530	0.134151	-0.899557	0.284039	0.0190214	0.0235042	2.43399e-11	-0.321474	0.546393	0.0901477	
99561	0.134151	-0.899557	0.284039	0.0225291	0.0227469	4.88917e-11	-0.268718	0.559382	0.13581	
99860	0.103711	-0.898227	0.272712	0.0216574	0.00977464	3.49394e-10	-0.203387	0.543647	0.43135	
99920	0.09478	-0.900638	0.268477	0.0159749	0.0116357	2.33631e-10	-0.304661	0.501389	0.288433	
99950	0.09478	-0.900638	0.268477	0.0120322	4.75465e-05	1.45394e-10	-0.321704	0.458317	0.403873	
99981	0.09478	-0.900638	0.268477	0.0230484	0.0018115	1.70274e-10	-0.196339	0.530043	0.378386	
100041	0.105278	-0.893459	0.264463	0.0249252	0.000949457	1.5051e-10	-0.174197	0.658449	0.264053	
100250	0.093063	-0.891999	0.254336	0.0179859	0.00159658	1.32567e-11	-0.239951	0.541589	0.0232573	
100340	0.0912187	-0.886605	0.253571	0.0294807	-0.00473644	3.1263e-11	-0.184988	0.627687	0.115789	
100430	0.0982613	-0.889959	0.262972	0.0104997	-0.00121707	1.18759e-10	-0.193799	0.609894	0.208349	
100520	0.0878434	-0.895614	0.254472	0.00610802	-0.0110546	2.16931e-11	-0.324031	0.539985	0.180775	
100761	0.104937	-0.885237	0.25774	-0.02693	-0.022666	1.03519e-10	-0.225625	0.465514	0.43133	
100970	0.111203	-0.9032	0.260803	-0.0470862	-0.0457453	1.31963e-10	-0.104475	0.533813	0.366563	
101090	0.117765	-0.907556	0.261185	-0.0419201	-0.0548158	3.41848e-11	-0.224121	0.530885	0.379831	
101210	0.109836	-0.926861	0.260538	0.247611	-0.10526	-0.013125	-5.60768e+06	-5.62002e+07	-1.00384e+07	
101630	0.155092	-0.962197	0.298763	0.291502	0.521051	0.208549	-7.29659e+07	-7.95815e+07	-1.31404e+07	
101661	0.155092	-0.962197	0.298763	-0.0693141	-0.0418558	1.96292e-10	-0.266675	0.508726	0.284482	
101720	0.162777	-0.962028	0.298596	-0.079265	-0.0410928	1.34474e-11	-0.197597	0.42525	0.0640352	
101840	0.168511	-0.990536	0.306871	-0.0742001	-0.0533427	4.30073e-11	-0.209665	0.551341	0.130325	
101930	0.183336	-0.98968	0.309876	-0.0808028	-0.0416859	2.37574e-10	-0.254753	0.478785	0.282826	
101990	0.196723	-0.98629	0.316609	-0.0797207	-0.0424142	7.97866e-11	-0.210783	0.560114	0.241778	
102020	0.196723	-0.98629	0.316609	-0.0890841	-0.0456779	3.22166e-10	-0.20258	0.408442	0.357962	
102530	0.257004	-1.00717	0.334983	-0.0911207	-0.0427268	9.78401e-11	-0.210419	0.519244	0.181185	
103010	0.319378	-1.06455	0.356906	-0.0823469	-0.035649	1.12753e-10	-0.230428	0.474571	0.341674	
103131	0.337747	-1.08163	0.364643	-0.0643888	-0.0319414	1.08375e-10	-0.227964	0.363226	0.361252	
103190	0.337967	-1.08833	0.362314	-0.0797488	-0.0360233	1.32015e-10	-0.288158	0.601	0.293367	
103221	0.337967	-1.08833	0.362314	-0.0685895	-0.0336389	5.26167e-11	-0.11729	0.448776	0.125278	
103250	0.337967	-1.08833	0.362314	-0.0573296	-0.0237809	1.33996e-10	-0.229896	0.371752	0.343579	
103490	0.365539	-1.1191	0.378938	-0.0418543	-0.0290683	4.28169e-11	-0.284541	0.506876	0.0679634	
103580	0.366613	-1.12459	0.379511	-0.0413764	-0.0336161	3.38948e-11	-0.22042	0.464508	0.102712	
103670	0.376133	-1.12604	0.382778	-0.0376039	-0.0341015	1.04955e-10	-0.134701	0.552414	0.194362	
103760	0.372786	-1.14132	0.383577	0.213869	-0.0353952	0.0529193	2.2818e+07	-1.06644e+08	5.39026e+07	
103940	0.380308	-1.14738	0.383151	-0.0367419	-0.0306817	6.35713e-11	-0.147875	0.505708	0.30272	
103970	0.380308	-1.14738	0.383151	-0.0386372	-0.0352738	1.07887e-10	-0.162848	0.401126	0.239748	
104061	0.399676	-1.15832	0.390505	-0.0371574	-0.0307122	5.74191e-11	-0.263284	0.481118	0.106332	
104510	0.455745	-1.18466	0.413737	-0.107867	0.0124076	1.00502e-10	-0.259909	0.467809	0.152276	
104540	0.455745	-1.18466	0.413737	-0.118447	0.0253158	6.50755e-11	-0.393313	0.375804	0.144612	
104660	0.474959	-1.18278	0.418324	-0.224516	0.0572093	9.19798e-11	-0.318422	0.279514	0.340666	
104690	0.474959	-1.18278	0.418324	-0.236516	0.0665899	1.97988e-11	-0.47343	0.401971	0.16499	
104750	0.486466	-1.17716	0.421374	-0.232141	0.0697004	1.20849e-10	-0.329098	0.491665	0.183104	
104840	0.527653	-1.1744	0.415816	-0.259163	0.103372	1.26962e-11	-0.43191	0.408847	0.0302289	
104870	0.527653	-1.1744	0.415816	-0.269919	0.102217	-1.25068e-11	-0.37794	0.382427	-0.0378993	
104991	0.590279	-1.15166	0.421554	-0.334483	0.151119	1.93809e-11	-0.503617	0.370194	0.05873	
105200	0.680793	-1.10207	0.40929	-0.345475	0.15615	1.19155e-10	-0.385241	0.325219	0.233637	
105441	0.781696	-1.04297	0.399554	-0.44232	-0.00236204	5.26437e-11	-0.47488	0.308712	0.350958	
105470	0.781696	-1.04297	0.399554	-0.424539	-0.0303762	1.26677e-11	-0.49662	0.375952	0.211128	
105530	0.827971	-1.00227	0.394075	-0.397337	-0.0590409	7.14513e-11	-0.396503	0.359576	0.183208	
105650	0.896039	-0.958491	0.390169	-0.402647	-0.0460302	1.70537e-10	-0.496351	0.0655723	0.437275	
105770	0.972329	-0.893519	0.396154	-0.40769	0.0599854	6.68391e-11	-0.631933	0.159468	0.318282	
106220	1.18499	-0.613627	0.380243	-2.44454	1.16661	-0.232556	1.19179e+08	2.40408e+08	1.93023e+07	
106311	1.20131	-0.594067	0.373905	-0.347162	0.0510285	1.59896e-11	-0.544398	0.47449	0.0266493	
106370	1.23995	-0.547979	0.375519	-0.355058	0.0714066	5.83151e-11	-0.533396	0.267155	0.323973	
106400	1.23995	-0.547979	0.375519	-0.331038	0.0686352	1.48217e-10	-0.672988	0.280169	0.205857	
106490	1.33346	-0.428405	0.359303	-0.367934	0.6287	2.13286e-11	-0.585998	0.169021	0.355477	
106790	1.4839	-0.203208	0.328109	-0.238865	0.670872	1.49912e-10	-0.483389	0.305199	0.384389	
106941	1.56861	-0.0481394	0.299385	-0.286866	0.773465	2.72009e-10	-0.675418	0.444895	0.477209	
107120	1.62694	0.0904041	0.293621	-0.198593	0.783609	8.31293e-11	-0.644026	0.528499	0.251907	
107240	1.66774	0.206523	0.27502	-0.181472	0.82283	6.96771e-11	-0.630707	0.417252	0.178659	
107390	1.72268	0.353802	0.258649	-0.193831	0.921201	6.04244e-11	-0.736279	0.490389	0.251768	
107450	1.72957	0.385693	0.251251	-0.186876	0.92042	1.43403e-10	-0.576846	0.352793	0.47801	
107871	1.7913	0.879771	0.184983	0.0034413	0.911011	-3.09349e-11	-0.878544	0.620736	-0.147309	
108021	1.79893	1.01316	0.163006	0.0738568	0.900317	1.02401e-12	-0.800535	0.685561	0.00853343	
108050	1.79893	1.01316	0.163006	0.0983825	0.931563	1.73497e-11	-0.756006	0.691341	0.0275392	
108080	1.79893	1.01316	0.163006	0.0907213	0.972833	5.6955e-11	-0.753364	0.432236	0.271214	
108140	1.80862	1.17608	0.13307	0.140468	0.915167	2.81287e-11	-0.833271	0.45996	0.133946	
108380	1.7761	1.40187	0.0714861	0.300527	0.912362	3.09112e-10	-0.704943	0.619765	0.396298	
108440	1.75525	1.50549	0.0557036	0.319655	0.909253	2.42763e-10	-0.771358	0.471653	0.323684	
108501	1.73404	1.56592	0.0316052	-1.51004	0.275936	-0.22111	-3.64327e+07	5.00655e+08	-1.84258e+08	
108560	1.72523	1.59764	0.0255662	0.380414	0.887894	2.45736e-10	-0.856988	0.504121	0.303378	
108680	1.71861	1.72283	-0.0130413	0.560886	0.893487	2.88445e-10	-0.690089	0.517982	0.480741	
108860	1.45445	1.98079	-0.129752	0.792391	0.846849	1.76841e-10	-0.789739	0.696168	0.491226	
108920	1.40072	2.01462	-0.142534	0.865569	0.813638	1.80884e-10	-0.875763	0.661753	0.301472	
109280	1.04614	2.3899	-0.191028	1.04808	0.158475	1.65302e-10	-0.745762	1.1806	0.34438	
109340	0.877812	2.4867	-0.236512	1.07375	0.118955	-2.29346e-11	-0.860479	1.23184	-0.0588066	
109400	0.763626	2.56656	-0.190994	1.06204	0.398951	-4.58742e-11	-0.794452	1.21411	-0.127428	
109520	0.602545	2.81795	-0.338375	1.0948	0.418129	-3.95259e-11	-0.712653	1.15217	-0.131753	
109670	0.486286	2.90419	-0.444908	0.698671	0.267898	-6.43931e-11	-0.493866	1.02026	-0.35774	
109850	0.164495	2.93795	-0.420661	0.22963	0.153206	3.00545e-11	-0.306908	0.802066	0.0500908	
109880	0.164495	2.93795	-0.420661	0.159937	0.137834	3.06547e-11	-0.351299	0.874844	0.092893	
109940	0.126437	2.96483	-0.442405	0.0401933	0.106097	3.898e-11	-0.310459	0.52282	0.0649667	
110000	0.161755	2.94587	-0.443147	0.0383571	-0.138687	1.058e-10	-0.12259	0.640153	0.320605	
110090	0.206533	2.9512	-0.437261	-0.0235068	-0.224683	3.73049e-10	-0.0312613	0.662407	0.621748	
110270	0.155588	2.90118	-0.441674	-0.0850741	-0.209918	-7.27985e-11	-0.154351	0.536145	-0.142742	
110480	0.167846	2.86262	-0.4214	-0.0619031	-0.141662	4.25302e-11	-0.264628	0.609446	0.0590697	
111051	0.26088	2.8444	-0.410218	-0.0134271	-0.0544557	2.18792e-10	-0.215701	0.486385	0.729307	
111260	0.207714	2.81577	-0.41195	-0.0565566	-0.0293539	1.40879e-10	-0.0967448	0.498691	0.469597	
111500	0.227409	2.80902	-0.405312	-0.102512	-0.0518284	7.52213e-11	-0.204375	0.310725	0.167158	
111800	0.244622	2.78598	-0.385158	-0.272714	-0.012173	3.50045e-11	-0.228966	0.362025	0.0686364	
111831	0.244622	2.78598	-0.385158	-0.294203	-0.0126346	-5.76661e-12	-0.274208	0.446781	-0.0101169	
111861	0.244622	2.78598	-0.385158	-0.311907	-0.00560177	4.29223e-12	-0.22929	0.384409	0.0357686	
112100	0.344672	2.75341	-0.339171	-0.418963	0.0242191	4.16014e-11	-0.326236	0.347332	0.0729849	
112131	0.344672	2.75341	-0.339171	-0.418953	0.0175153	-4.62257e-12	-0.25442	0.385932	-0.0513619	
112160	0.344672	2.75341	-0.339171	-0.472306	0.0239896	3.05209e-11	-0.383024	0.182371	0.0678242	
112340	0.458256	2.71619	-0.317722	-0.571375	0.0270425	4.24792e-11	-0.110241	0.181071	0.15733	
112550	0.569104	2.69494	-0.295639	-0.640862	0.0423353	5.92308e-11	-0.233107	0.19222	0.16453	
112641	0.638536	2.71237	-0.293842	-0.652843	0.0425056	1.05409e-10	-0.230597	0.148943	0.219602	
112670	0.638536	2.71237	-0.293842	-0.624168	0.0457255	7.20682e-11	-0.330646	0.227079	0.18479	
113091	1.06537	2.74623	-0.234217	-0.74408	0.0470419	3.09761e-11	-0.24476	0.086902	0.206507	
113210	1.19465	2.72911	-0.212443	-0.762811	0.029731	3.17998e-11	-0.249036	0.24291	0.176665	
113390	1.37873	2.73581	-0.204977	-0.779061	0.015779	2.63043e-11	-0.304815	0.0949121	0.0548007	
113450	1.43229	2.6981	-0.199786	-0.777734	0.00722829	-5.40867e-11	-0.27102	0.231271	-0.225361	
113661	1.57739	2.71021	-0.173339	-0.699808	-0.00302618	1.30698e-11	-0.408137	0.239961	0.21783	
113990	1.85813	2.68444	-0.190055	-0.459944	0.0279114	1.78717e-10	-0.282404	0.258313	0.330956	
114021	1.85813	2.68444	-0.190055	-0.418796	0.0346926	9.2412e-11	-0.283311	0.320913	0.440057	
114230	1.90836	2.67413	-0.173103	-0.128782	0.00603549	3.23878e-11	-0.397431	0.313795	0.134949	
114411	1.96704	2.70947	-0.09904	-0.0129233	-0.00496588	-6.2574e-11	-0.274039	0.439625	-0.130363	
114440	1.96704	2.70947	-0.09904	-0.00771604	-0.00899095	-2.92051e-12	-0.268029	0.622726	-0.0973503	
114890	2.07802	2.71746	-0.0939348	-0.00800474	0.0154025	1.15571e-11	-0.23461	0.5567	0.0642059	
115070	2.05932	2.69253	-0.115705	-0.00122604	0.0203598	1.24505e-10	-0.237883	0.493389	0.244128	
115250	2.05942	2.69586	-0.119028	0.00898982	0.0267373	1.54352e-10	-0.112736	0.516055	0.395775	
115370	2.05716	2.71254	-0.130284	0.0104335	0.0250082	2.48277e-10	-0.195503	0.445452	0.376178	
115550	2.03737	2.70867	-0.136749	0.012677	0.0200824	1.60151e-10	-0.272198	0.623288	0.242652	
115610	2.03789	2.72611	-0.13903	0.0298148	0.00643423	1.12732e-10	-0.326024	0.414696	0.234859	
115881	1.98336	2.72494	-0.165711	0.162621	0.0476118	7.54866e-11	-0.220398	0.547697	0.228747	
115910	1.98336	2.72494	-0.165711	0.184406	0.0558354	2.42523e-11	-0.141038	0.694342	0.0577436	
116180	1.95093	2.73952	-0.156247	0.295327	0.0726492	3.24939e-11	-0.3323	0.686827	0.216626	
116270	1.90452	2.75247	-0.164943	0.320941	0.0754752	5.20943e-11	-0.270811	0.709506	0.144706	
116690	1.72654	2.82118	-0.207085	0.370758	0.0850354	7.36363e-11	-0.198477	0.734574	0.272727	
116900	1.60834	2.85143	-0.228364	0.321774	0.123205	5.24958e-11	-0.299956	0.699763	0.174986	
117170	1.5417	2.91436	-0.234442	0.197076	0.103566	1.15572e-11	-0.265197	0.579738	0.128414	
117890	1.44912	2.96858	-0.275771	-0.0344336	0.0214383	2.8632e-11	-0.0918834	0.348229	0.09544	
118100	1.45346	2.97468	-0.283239	-0.0117971	0.0116902	8.5213e-11	-0.28676	0.453826	0.258221	
118340	1.46874	2.97837	-0.280159	0.000752984	0.0111723	6.34734e-11	-0.237755	0.50065	0.35263	
118580	1.46564	2.98196	-0.279171	-0.0163453	0.00572572	6.52981e-12	-0.143265	0.312052	0.10883	
118790	1.4454	2.98233	-0.281229	-0.0798906	-0.0178728	1.04075e-11	-0.239772	0.409157	0.115639	
119150	1.50122	2.98394	-0.281992	-0.0778542	-0.0295736	1.21777e-10	-0.222758	0.387716	0.253702	
119180	1.50122	2.98394	-0.281992	-0.073841	-0.0241395	3.37089e-12	-0.138758	0.429554	0.0374543	
119420	1.52209	2.97817	-0.276861	0.00993354	-0.0154375	2.3144e-11	-0.14799	0.527811	0.128578	
119450	1.52209	2.97817	-0.276861	0.0110446	-0.00719987	7.1524e-11	-0.230361	0.439891	0.198678	
119811	1.49797	2.96692	-0.276902	0.117116	-0.00558567	9.08585e-12	-0.15894	0.535261	0.100954	
120140	1.45306	2.97257	-0.281765	0.231318	-0.00176052	8.38529e-11	-0.0995614	0.56187	0.215007	
120501	1.30909	2.96488	-0.303972	0.334467	-0.0137008	6.50211e-11	-0.197116	0.462165	0.197034	
121220	0.965895	2.95432	-0.349341	0.334932	-0.0157259	8.24231e-11	-0.134373	0.590344	0.228953	
121250	0.965895	2.95432	-0.349341	0.32897	-0.0170069	6.80551e-11	-0.179974	0.65932	0.22685	
121310	0.922933	2.94935	-0.346871	0.319424	-0.0196609	2.79673e-11	-0.293343	0.590431	0.11653	
121340	0.922933	2.94935	-0.346871	0.348722	-0.0184579	9.65115e-12	-0.0889657	0.663604	0.107235	
121670	0.849881	2.94169	-0.3325	0.0764785	-0.0649296	1.64838e-11	-0.163269	0.601968	0.0915768	
121760	0.815916	2.87352	-0.327136	0.0375132	-0.0681404	9.25604e-11	-0.157024	0.545761	0.192834	
122030	0.799705	2.92377	-0.337777	-0.0131761	-0.0348468	1.42473e-11	-0.159127	0.526201	0.118727	
122120	0.800671	2.9193	-0.334349	-0.013856	-0.0248683	1.56785e-10	-0.0886263	0.482002	0.201006	
122270	0.787151	2.90931	-0.335854	-0.029796	-0.0126206	-1.42677e-12	-0.274747	0.360165	-0.0118897	
122390	0.774213	2.89908	-0.330765	-0.00124001	0.00112118	1.26142e-10	-0.164539	0.402646	0.191124	
122420	0.774213	2.89908	-0.330765	0.00699756	0.00511266	5.45169e-11	-0.205329	0.426411	0.113577	
122450	0.774213	2.89908	-0.330765	0.00455501	0.0028462	-1.4234e-12	-0.10543	0.597885	-0.00395389	
122481	0.774213	2.89908	-0.330765	0.000312026	0.0074644	1.41189e-11	-0.183112	0.478378	0.067233	
122510	0.774213	2.89908	-0.330765	-0.0126262	0.00477574	2.3463e-11	-0.130881	0.542539	0.0434501	
122661	0.787846	2.90595	-0.324351	0.00563193	0.0140874	5.52839e-11	-0.180117	0.43653	0.18428	
122750	0.789053	2.90526	-0.328811	-0.00284544	0.0283751	6.43965e-11	-0.204861	0.430194	0.112976	
122960	0.780451	2.90548	-0.330012	0.0203681	0.0341801	-3.12848e-11	-0.291621	0.487721	-0.0744877	
123291	0.788616	2.92055	-0.348201	0.00160401	0.0281062	2.36844e-11	-0.20015	0.458569	0.19737	
123410	0.796496	2.93065	-0.344512	-0.0191407	0.026281	5.97967e-11	-0.169083	0.50002	0.199322	
123740	0.792301	2.94103	-0.355898	0.00104768	0.026924	9.22475e-11	-0.239541	0.437127	0.170829	
123950	0.780989	2.93731	-0.359816	-0.00872451	0.0243732	6.55118e-11	-0.226055	0.439511	0.363955	
124040	0.781075	2.94828	-0.362822	0.0126283	0.0177948	9.05591e-11	-0.210457	0.354293	0.137211	
124280	0.784821	2.94633	-0.365704	-0.0101349	0.00912357	9.50538e-11	-0.167274	0.479179	0.18638	
124370	0.777135	2.9455	-0.373785	-0.0747976	-0.0522286	-0.169149	6.0017e+07	8.44316e+07	-7.55766e+07	
124401	0.777135	2.9455	-0.373785	0.0188075	0.00365843	7.03816e-11	-0.164119	0.466036	0.234605	
124430	0.777135	2.9455	-0.373785	0.00942099	0.00433761	2.0731e-10	-0.173497	0.389192	0.345517	
124550	0.768859	2.9444	-0.377251	0.00435732	0.00644449	1.10533e-10	-0.187662	0.484414	0.204691	
124580	0.768859	2.9444	-0.377251	0.00435732	0.00644449	2.94755e-10	-0.187662	0.484414	0.204691	
124610	0.768859	2.9444	-0.377251	0.0114915	0.00373278	5.58443e-11	-0.267112	0.558161	0.206831	
124790	0.764372	2.94714	-0.37721	-0.0208438	0.000979085	6.39431e-11	-0.0810089	0.522706	0.118413	
124910	0.762318	2.9468	-0.374461	-0.00517575	-0.000612545	8.82166e-11	-0.17738	0.555432	0.147028	
125030	0.765965	2.94328	-0.374301	-0.0353376	0.00601741	4.70534e-11	-0.159181	0.334365	0.261408	
125060	0.765965	2.94328	-0.374301	-0.0540572	0.0125452	2.3304e-11	-0.206579	0.516538	0.110971	
125150	0.762937	2.94719	-0.350227	-0.0435975	0.00837861	-1.75232e-11	-0.197433	0.524217	-0.0649006	
125361	0.791252	2.95629	-0.376827	-0.0877484	0.0029725	2.20597e-11	-0.283387	0.375028	0.105046	
125390	0.791252	2.95629	-0.376827	-0.101281	0.000152151	9.64773e-11	-0.301839	0.440206	0.139822	
125570	0.811036	2.95609	-0.368319	-0.0867057	-0.0307485	1.62706e-11	-0.254183	0.511756	0.0774791	
125690	0.839449	2.95468	-0.362483	-0.0790117	-0.0507916	7.8501e-12	-0.137187	0.430919	0.0201285	
125720	0.839449	2.95468	-0.362483	-0.0836544	-0.0448542	-3.09193e-11	-0.169362	0.482288	-0.0644153	
126110	0.906886	2.9243	-0.339443	-0.041838	-0.106524	8.20049e-11	-0.0758257	0.400692	0.2485	
126171	0.921134	2.91484	-0.339862	-0.053021	-0.114591	2.5673e-10	-0.1057	0.449808	0.295091	
126350	0.917203	2.87614	-0.34619	-0.015258	-0.148469	4.63512e-11	-0.0595556	0.502956	0.19313	
126380	0.917203	2.87614	-0.34619	-0.015258	-0.148469	2.20168e-10	-0.0595556	0.502956	0.19313	
126470	0.914288	2.84739	-0.343444	-0.0145596	-0.150091	1.79145e-11	-0.14	0.42312	0.0426537	
126770	0.913064	2.77705	-0.337276	0.0241097	-0.146522	5.36342e-11	-0.026213	0.402099	0.137524	
126981	0.885031	2.70683	-0.322918	0.0663248	-0.121391	5.68218e-11	0.0302098	0.529119	0.13529	
127011	0.885031	2.70683	-0.322918	0.0799611	-0.130951	5.71372e-11	-0.186544	0.524179	0.173143	
127070	0.863835	2.6703	-0.329007	0.0870954	-0.148131	2.51733e-11	-0.171805	0.543322	0.167822	
127221	0.866012	2.64606	-0.318846	0.15194	-0.182815	1.22306e-10	-0.0504391	0.493249	0.194137	
127310	0.865808	2.63565	-0.315662	0.108178	-0.191044	1.19145e-10	-0.156752	0.524835	0.209027	
127430	0.833611	2.62103	-0.316223	0.167244	-0.138691	3.7326e-11	-0.137429	0.520422	0.103683	
127490	0.83142	2.60043	-0.312525	0.119223	-0.173161	3.79794e-11	-0.0843971	0.619922	0.0843987	
127520	0.83142	2.60043	-0.312525	0.115827	-0.134945	1.38652e-11	-0.102954	0.542597	0.0577717	
127550	0.83142	2.60043	-0.312525	0.112462	-0.153462	4.15067e-11	-0.225417	0.568417	0.197651	
127610	0.800716	2.57326	-0.311329	0.294895	0.296763	0.119912	1.02389e+08	-7.85736e+07	6.66178e+07	
128030	0.771286	2.53734	-0.309175	0.0551054	-0.0400254	6.64658e-11	-0.17468	0.483003	0.130325	
128150	0.776342	2.55009	-0.310065	0.0231923	-0.0145186	-3.02606e-11	-0.286263	0.512656	-0.0420286	
128180	0.776342	2.55009	-0.310065	0.0267081	-0.0134297	3.07105e-11	-0.212222	0.453543	0.102368	
128240	0.770391	2.54665	-0.310237	0.00791368	-0.00446268	1.0058e-10	-0.283771	0.438168	0.124173	
128330	0.762978	2.54012	-0.317201	0.133971	-0.104732	-0.12012	-7.48144e+07	-1.00656e+08	-8.67029e+07	
128540	0.758872	2.54157	-0.32029	-0.0138214	0.0205831	-2.09679e-11	-0.275777	0.421424	-0.0998471	
128630	0.759102	2.54327	-0.318968	-0.041318	0.0278036	8.98124e-11	-0.25813	0.447622	0.103233	
128751	0.753955	2.53954	-0.31835	-0.0172058	0.0200625	8.05157e-11	-0.141692	0.389672	0.111827	
128870	0.761362	2.54493	-0.314835	-0.0157108	0.0246739	1.72208e-11	-0.227902	0.475264	0.0220779	
129021	0.749558	2.5697	-0.323911	-0.0307086	0.0175936	-1.40877e-12	-0.233616	0.387493	-0.015653	
129230	0.745593	2.53444	-0.324484	-0.0298941	0.0173625	-7.87883e-11	-0.212926	0.577484	-0.238752	
129260	0.745593	2.53444	-0.324484	-0.0292018	0.0171282	-2.39139e-11	-0.319142	0.341207	-0.0284689	
129351	0.7415	2.53204	-0.322012	0.11092	-0.0963878	0.0637471	-4.05952e+07	-1.08045e+08	4.12857e+07	
129470	0.739167	2.53697	-0.325861	-0.0448895	0.0176667	2.18144e-11	-0.361372	0.490906	0.0363574	
129500	0.739167	2.53697	-0.325861	-0.0165668	0.0169677	4.47612e-11	-0.284434	0.309448	0.106574	
129650	0.735906	2.5415	-0.326315	-0.0164392	0.0167537	-1.33541e-12	-0.294715	0.401263	-0.00185474	
129831	0.740884	2.54815	-0.327497	-0.0290298	0.00979838	1.36663e-11	-0.31352	0.422767	0.0414129	
129920	0.738508	2.54711	-0.326638	0.07486	-0.22127	0.069463	-4.00501e+07	-1.76372e+07	1.44715e+07	
129981	0.73887	2.53621	-0.329167	-0.0195506	0.0103743	8.05466e-11	-0.361286	0.405014	0.127852	
130190	0.73252	2.53844	-0.328652	-0.00679148	0.00560416	5.01293e-11	-0.34827	0.289792	0.0879462	
130430	0.733725	2.5375	-0.323409	-0.00348515	-0.00761327	-2.19743e-11	-0.157055	0.42485	-0.0406931	
130911	0.729332	2.52744	-0.317783	-0.00877362	-0.00109658	-9.20454e-11	-0.30801	0.398584	-0.122727	
131001	0.730776	2.53593	-0.318177	0.0117616	-0.00892685	-1.35812e-11	-0.189898	0.511243	-0.041155	
131271	0.728931	2.53034	-0.315154	0.0222922	-0.00547424	-1.71929e-11	-0.223887	0.404134	-0.0573097	
131450	0.73255	2.53293	-0.316059	-0.00644715	-0.00629789	1.24279e-11	-0.215959	0.393546	0.0258915	
131660	0.738641	2.54052	-0.319544	0.00285566	-0.0118402	2.47204e-12	-0.227017	0.366852	0.0117716	
131750	0.741159	2.54607	-0.318416	-0.00122917	-0.0131008	-2.24915e-11	-0.231523	0.449115	-0.0267756	
131960	0.739298	2.54372	-0.317242	-0.055328	-0.0258355	-4.09931e-11	-0.204322	0.376328	-0.136644	
132320	0.771877	2.54014	-0.306799	-0.24309	-0.0477873	5.0201e-12	-0.206438	0.253689	0.0836684	
132440	0.809402	2.51865	-0.298583	-0.280101	-0.047724	5.47668e-11	-0.283534	0.196804	0.10142	
132500	0.823092	2.51121	-0.30032	-0.314002	-0.0637688	-2.27019e-11	-0.197608	0.292404	-0.0687937	
132680	0.904027	2.49708	-0.280641	-0.318213	-0.0494502	3.62165e-13	-0.304729	0.301527	0.00402405	
132740	0.911728	2.49368	-0.282543	-0.342934	-0.0449185	-1.75694e-11	-0.185776	0.310511	-0.0195215	
132860	0.964777	2.47803	-0.276245	-0.380615	-0.052717	-1.51689e-11	-0.267579	0.302005	-0.0632037	
132950	1.14512	2.37025	-0.186743	-0.465658	-0.0543891	2.52525e-11	-0.0903797	0.281791	0.16835	
132981	1.14512	2.37025	-0.186743	-0.497943	-0.0370375	1.48367e-12	-0.250432	0.0804971	0.00989115	
133010	1.14512	2.37025	-0.186743	-0.532468	-0.0476467	1.24819e-11	-0.342725	0.192965	0.0832129	
133040	1.14512	2.37025	-0.186743	-0.525531	-0.0652732	5.57661e-12	-0.193924	0.285246	0.0619624	
133070	1.14512	2.37025	-0.186743	-0.526911	-0.065174	4.00791e-11	-0.181849	0.197633	0.0494803	
133250	1.33043	2.32622	-0.155847	-0.661669	-0.081548	-2.2276e-11	-0.257984	0.123965	-0.148506	
133460	1.35143	2.3928	-0.206471	-0.640752	-0.0928809	8.2699e-11	-0.0969804	0.110094	0.137832	
133940	1.74103	2.31726	-0.149371	-0.754787	-0.0629867	-1.01942e-11	-0.128238	0.0957796	-0.0339805	
134000	1.82908	2.307	-0.14204	-0.713545	-0.0593485	1.72471e-11	-0.156108	0.116198	0.114981	
134510	2.1702	2.23786	-0.142084	-0.402075	0.00290627	-1.24111e-11	-0.313019	0.340129	-0.0188046	
135260	2.33821	2.24097	-0.0854216	0.00204613	0.00768113	-1.23096e-11	-0.166358	0.387733	-0.0195391	
135740	2.34208	2.26839	-0.0965969	-0.00808717	0.0216395	4.74096e-11	-0.256118	0.379871	0.11288	
136010	2.34096	2.28244	-0.100136	0.00157855	0.00924983	1.71608e-11	-0.192931	0.511901	0.0953377	
136041	2.34096	2.28244	-0.100136	0.0127072	0.0125375	1.06902e-11	-0.277061	0.442097	0.0593902	
136100	2.33838	2.28096	-0.0981423	0.00692873	0.00846415	4.62549e-11	-0.25507	0.480278	0.154183	
136220	2.33667	2.26709	-0.0946824	0.00436675	0.0097399	-2.04732e-12	-0.189098	0.470729	-0.011374	
136520	2.33819	2.27047	-0.0987785	0.0135416	-0.00412194	1.83491e-11	-0.348021	0.462072	0.101939	
136640	2.33605	2.27381	-0.096187	0.0140028	-0.0122704	-3.9916e-11	-0.186348	0.504542	-0.0887023	
136670	2.33605	2.27381	-0.096187	0.0164548	-0.0185048	-6.59062e-11	-0.265865	0.520189	-0.16899	
136700	2.33605	2.27381	-0.096187	0.0148962	-0.0119919	-1.4113e-11	-0.17276	0.431878	-0.0470432	
137121	2.33903	2.24535	-0.083237	0.0215714	0.00116411	-4.26611e-11	-0.195044	0.496087	-0.129276	
137450	2.32916	2.24146	-0.0837407	0.0051932	-0.00103942	8.70671e-11	-0.175241	0.409626	0.207303	
137870	2.32009	2.23708	-0.0823439	0.0112266	0.000198815	3.86478e-13	-0.346365	0.430346	0.00322065	
138140	2.31269	2.24029	-0.103563	0.058361	0.00692155	-3.99486e-12	-0.271741	0.598174	-0.0110968	
138171	2.31269	2.24029	-0.103563	0.0540209	0.0184325	1.14303e-10	-0.224296	0.307514	0.181434	
138441	2.2772	2.23213	-0.0849051	0.145785	0.0359738	-2.77958e-12	-0.165393	0.511138	-0.0231632	
138681	2.23822	2.26492	-0.102116	0.137689	0.0882013	-1.94768e-10	-0.322446	0.567102	-0.25969	
138801	2.2095	2.28917	-0.10989	0.123314	0.114375	-2.84784e-11	-0.245262	0.507711	-0.105476	
138830	2.2095	2.28917	-0.10989	0.112242	0.134057	-4.70935e-11	-0.20868	0.495042	-0.224255	
139220	2.14879	2.34663	-0.130975	0.0770202	0.214639	3.96523e-11	-0.293112	0.455753	0.14686	
139400	2.13778	2.4011	-0.15335	0.0296472	0.244982	7.39819e-11	-0.30343	0.585716	0.246606	
139550	2.12852	2.45044	-0.165514	0.0248954	0.273469	6.70894e-11	-0.266813	0.580154	0.13977	
139611	2.1227	2.46945	-0.169644	0.00712154	0.269288	1.78183e-10	-0.287777	0.500215	0.329969	
139670	2.12687	2.49131	-0.177531	0.00109596	0.295263	4.89018e-11	-0.276217	0.494441	0.135838	
139820	2.11159	2.51606	-0.185504	-0.0449501	0.286967	3.61993e-11	-0.297644	0.521475	0.172378	
140030	2.13643	2.60785	-0.207726	-0.0762693	0.302566	6.43664e-11	-0.226463	0.569345	0.42911	
140060	2.13643	2.60785	-0.207726	-0.0762693	0.302566	4.50565e-10	-0.226463	0.569345	0.42911	
140210	2.14199	2.65881	-0.21766	-0.117176	0.307707	6.61142e-11	-0.328497	0.485759	0.0816225	
140421	2.1831	2.72483	-0.230057	-0.234882	0.299712	1.48897e-11	-0.422321	0.503071	0.0381788	
140510	2.20658	2.75944	-0.236971	-0.26278	0.316243	8.79186e-11	-0.392695	0.506998	0.195375	
140660	2.25783	2.83015	-0.236463	-0.328805	0.288519	2.99405e-11	-0.323487	0.29193	0.249504	
140690	2.25783	2.83015	-0.236463	-0.328719	0.276601	3.41974e-11	-0.269662	0.372645	0.103628	
141050	2.44655	2.96919	-0.265454	-0.346904	0.199584	3.0152e-11	-0.363616	0.361249	0.0717904	
141110	2.45995	2.9809	-0.261376	-0.342656	0.202245	2.27824e-12	-0.365287	0.389705	0.0126569	
141410	2.49706	3.03711	-0.259647	-0.0967801	0.0894411	1.22161e-10	-0.285889	0.512288	0.214318	
141620	2.53087	3.0906	-0.246973	-0.0122316	0.0266559	7.23294e-11	-0.2086	0.453631	0.301372	
141650	2.53087	3.0906	-0.246973	0.00360748	0.0146176	5.00563e-11	-0.176397	0.398401	0.238364	
141770	2.55135	3.09899	-0.219564	0.00465606	0.00519945	1.30854e-10	-0.139604	0.535325	0.174472	
141830	2.56267	3.09411	-0.211542	0.0094276	0.00168287	7.38142e-11	-0.246782	0.644748	0.123024	
141860	2.56267	3.09411	-0.211542	0.0215389	-0.00788677	9.74124e-11	-0.231556	0.482963	0.295189	
141920	2.56804	3.08936	-0.222035	0.0141452	-0.00428292	4.3521e-11	-0.147159	0.590337	0.207243	
141950	2.56804	3.08936	-0.222035	0.0156848	0.00242112	4.81594e-11	-0.178608	0.544944	0.267552	
142040	2.58263	3.10246	-0.219964	0.0157076	-0.00152617	4.30557e-11	-0.125564	0.454836	0.287038	
142251	2.58392	3.09875	-0.214946	0.00459019	-0.000690473	4.43066e-11	-0.0547543	0.507589	0.295377	
142310	2.57699	3.09383	-0.217764	-0.0184293	0.00570251	3.55656e-11	0.0402673	0.530429	0.29638	
142340	2.57699	3.09383	-0.217764	0.00256603	0.00208665	9.43125e-11	-0.232547	0.512499	0.349306	
142400	2.57981	3.09713	-0.218189	-0.0111692	-0.00198827	1.02652e-10	-0.0957759	0.529083	0.311066	
142431	2.57981	3.09713	-0.218189	-0.00589034	0.00113342	1.10508e-10	-0.0405607	0.507644	0.245574	
142700	2.57564	3.09351	-0.212654	0.00147951	0.00946474	3.8502e-11	-0.16874	0.446818	0.08556	
142730	2.57564	3.09351	-0.212654	-0.0310127	0.0205773	1.08247e-11	-0.105092	0.522855	0.0721646	
143241	2.53606	3.07239	-0.221929	0.103346	-0.0161455	9.35463e-11	-0.170107	0.577237	0.259851	
143300	2.53007	3.07182	-0.222733	0.140078	-0.0151727	7.42569e-12	-0.0802451	0.592631	0.0825077	
143601	2.4944	3.08845	-0.229887	0.281488	-0.0207421	-6.23616e-11	-0.0916664	0.739156	-0.0692907	
143870	2.3945	3.07358	-0.244722	0.348278	-0.0136855	3.01432e-11	-0.219726	0.652916	0.167462	
144111	2.32207	3.07707	-0.262391	0.370275	-0.0135976	1.76457e-10	-0.194769	0.706201	0.345994	
144140	2.32207	3.07707	-0.262391	0.370275	-0.0135976	4.77472e-10	-0.194769	0.706201	0.345994	
144170	2.32207	3.07707	-0.262391	0.370275	-0.0135976	7.88867e-10	-0.194769	0.706201	0.345994	
144200	2.32207	3.07707	-0.262391	0.381931	-0.0200342	1.2777e-10	-0.261	0.665308	0.250529	
144350	2.28213	3.0762	-0.266793	0.414031	-0.0280642	1.0529e-10	-0.125384	0.798352	0.233978	
144530	2.2046	3.08169	-0.286221	0.41048	-0.0194537	1.37942e-10	-0.0881411	0.708634	0.418005	
144590	2.1672	3.08192	-0.289079	0.422637	-0.024695	9.97584e-11	-0.217386	0.570299	0.41566	
144620	2.1672	3.08192	-0.289079	0.407654	-0.0257036	1.75852e-10	-0.225055	0.671162	0.366359	
144650	2.1672	3.08192	-0.289079	0.406371	-0.0251718	1.25006e-10	-0.282306	0.720876	0.198422	
144680	2.1672	3.08192	-0.289079	0.4119	-0.0136753	3.28977e-11	-0.354124	0.630311	0.137074	
144710	2.1672	3.08192	-0.289079	0.394485	-0.00495329	2.99962e-12	-0.141165	0.72483	0.0499937	
144890	1.93064	3.08543	-0.313422	0.275368	0.0166515	1.08818e-10	-0.170081	0.668491	0.453408	
145190	1.84154	3.07868	-0.314946	0.0893403	-0.0173879	9.93207e-11	-0.0745196	0.553603	0.236478	
145370	1.83162	3.0949	-0.317355	0.0359809	-0.0201058	8.31006e-11	-0.182384	0.496713	0.30778	
145400	1.83162	3.0949	-0.317355	0.00306778	-0.0191746	9.14571e-12	-0.152885	0.53709	0.304857	
145550	1.80836	3.08723	-0.310894	-0.0304822	-0.0278895	1.11789e-10	-0.293696	0.501566	0.169377	
146000	1.7954	3.07405	-0.307279	-0.0153962	0.0018119	2.1648e-10	-0.255527	0.476945	0.3608	
146031	1.7954	3.07405	-0.307279	-0.00361093	0.00514551	1.34657e-11	-0.248599	0.656435	0.112214	
146060	1.7954	3.07405	-0.307279	-0.0149017	-0.000340488	1.40303e-10	-0.143193	0.436581	0.38973	
146120	1.79449	3.07216	-0.308283	-0.0170976	-0.0056208	3.0551e-11	-0.270721	0.430039	0.254592	
146270	1.80515	3.06141	-0.30876	-0.163408	0.187428	-0.129997	1.85787e+08	1.2138e+08	-1.00339e+08	
146570	1.80767	3.06089	-0.305616	-0.0325326	0.0059691	4.33562e-11	-0.365689	0.506115	0.0850121	
146930	1.8389	3.06336	-0.311596	-0.01858	0.0164511	3.17208e-11	-0.234822	0.596131	0.211472	
147050	1.83008	3.06343	-0.31218	-0.0190023	0.0173518	9.87469e-11	-0.204515	0.525962	0.274297	
147080	1.83008	3.06343	-0.31218	-0.0190023	0.0173518	3.45614e-10	-0.204515	0.525962	0.274297	
147231	1.83355	3.05826	-0.311596	-0.0192174	0.0108569	5.38945e-11	-0.148894	0.606706	0.119766	
147350	1.83923	3.05908	-0.310334	-0.0177054	0.0076982	6.87627e-11	-0.0345257	0.586626	0.229209	
147380	1.83923	3.05908	-0.310334	-0.0266507	0.009006	3.70576e-11	-0.176788	0.60867	0.112296	
147470	1.83518	3.05949	-0.312977	-0.0149045	0.00717474	1.77804e-10	-0.142196	0.440253	0.311937	
147560	1.83916	3.05952	-0.315161	-0.0125696	0.0102002	3.0119e-11	-0.117353	0.407284	0.143424	
147591	1.83916	3.05952	-0.315161	-0.0125696	0.0102002	1.63503e-10	-0.117353	0.407284	0.143424	
147830	1.8388	3.06073	-0.311432	0.0123036	0.00674268	7.70082e-11	-0.204671	0.549198	0.233358	
147860	1.8388	3.06073	-0.311432	0.0119595	0.0020725	3.40032e-11	-0.213307	0.50416	0.377814	
147891	1.8388	3.06073	-0.311432	0.00937975	0.0108407	7.68533e-11	-0.224784	0.422649	0.232889	
147981	1.83578	3.05933	-0.31071	-0.000117876	0.0125788	1.00129e-10	-0.166952	0.501412	0.151711	
148070	1.83518	3.05999	-0.310707	0.0029119	-0.00257952	2.76967e-10	-0.249947	0.473643	0.318353	
148100	1.83518	3.05999	-0.310707	0.00291189	-0.00257952	5.63486e-10	-0.249947	0.473643	0.318353	
148401	1.82847	3.06016	-0.309794	-0.00234078	-0.0129141	5.78127e-11	-0.258396	0.511244	0.0837865	
148460	1.82761	3.05932	-0.310165	-0.00807988	0.00829436	-8.83846e-12	-0.280678	0.812285	-0.0245513	
148610	1.81998	3.05174	-0.308207	-0.0614834	-0.014982	2.40033e-10	-0.247234	0.494998	0.470654	
148640	1.81998	3.05174	-0.308207	-0.0553445	-0.0193788	6.51611e-11	-0.165448	0.504636	0.127767	
148820	1.86343	3.04644	-0.303897	-0.177952	-0.0315906	1.19943e-10	-0.132546	0.483472	0.173831	
148910	1.89274	3.04549	-0.298614	-0.25399	-0.0391578	1.11219e-10	-0.168055	0.320738	0.411923	
148970	1.90199	3.04377	-0.298697	-0.298847	-0.0438445	2.02479e-10	-0.119663	0.429302	0.449953	
149031	1.91674	3.04177	-0.296274	0.010341	0.0759086	0.0722526	2.40228e+08	2.14766e+07	4.63158e+07	
149120	1.93866	3.04117	-0.293894	-0.352424	-0.050146	1.10629e-10	-0.196165	0.261527	0.335241	
149510	2.10753	3.00888	-0.271823	-0.523078	-0.0165795	9.713e-11	-0.222779	0.370544	0.17987	
149571	2.14734	3.00588	-0.267373	-0.581783	-0.0173566	9.81855e-11	-0.119308	0.0643541	0.409106	
149630	2.1662	3.00467	-0.266483	-0.61094	-0.00887414	8.61712e-12	-0.145537	0.373105	0.143619	
149721	2.23837	3.00609	-0.248645	-0.641751	0.00214085	1.21895e-11	-0.119254	0.245267	0.0580453	
149871	2.37493	2.9923	-0.221745	-0.683823	0.0259166	-1.89209e-11	-0.137554	0.168192	-0.0331946	
149900	2.37493	2.9923	-0.221745	-0.723802	0.0285608	2.58417e-11	-0.183936	0.157425	0.0957102	
149930	2.37493	2.9923	-0.221745	-0.75013	0.0407591	8.27369e-12	-0.22299	0.0510075	0.055158	
150380	2.81615	3.01079	-0.186892	-0.832774	0.0865615	5.51282e-11	-0.266962	0.0928955	0.306268	
150470	2.89921	3.0109	-0.189854	-0.0486067	0.658519	-0.0839254	6.17175e+08	2.04846e+07	-2.86261e+07	
150560	2.96547	3.01759	-0.189256	-0.845069	0.100741	1.94922e-10	-0.283006	0.164264	0.3094	
150890	3.28367	3.03611	-0.199364	-0.579466	0.137845	2.03341e-10	-0.186613	0.236432	0.398708	
150981	3.30101	3.02385	-0.202644	-0.4593	0.135173	1.3213e-10	-0.159731	0.357582	0.169398	
151191	3.3973	3.10007	-0.161664	-0.167659	0.105006	9.39745e-12	-0.190842	0.44681	0.0284771	
151280	3.41458	3.1109	-0.158875	-0.0197832	0.110195	-2.4022e-11	-0.189603	0.572961	-0.0571951	
151400	3.42245	3.11142	-0.186699	0.0216397	0.0793947	2.96001e-12	-0.274132	0.624228	0.0140953	
151580	3.43287	3.12054	-0.149371	0.030798	0.0513605	3.18591e-13	-0.200164	0.56338	0.0035399	
151701	3.46267	3.15862	-0.135644	0.028137	0.0413165	5.71912e-11	-0.0198842	0.454331	0.127092	
151730	3.46267	3.15862	-0.135644	0.0244899	0.0376573	2.84817e-11	-0.184492	0.620467	0.0949389	
151970	3.47319	3.17952	-0.142928	0.00890698	0.0319911	9.49268e-11	-0.238259	0.513527	0.186131	
152361	3.4847	3.20619	-0.155861	-0.00102961	0.0167994	6.82377e-11	-0.0894229	0.471345	0.162471	
152450	3.48107	3.20191	-0.160609	0.0101093	0.0116819	3.41125e-11	-0.177129	0.450538	0.227416	
152780	3.481	3.21841	-0.156697	0.0368709	0.00170788	8.49906e-11	0.0184963	0.498774	0.188868	
152810	3.481	3.21841	-0.156697	0.0326293	-0.00412212	1.24655e-10	-0.202636	0.519326	0.296797	
152930	3.47499	3.21826	-0.162909	0.0197555	-0.00798552	3.80628e-11	-0.110997	0.478812	0.158595	
152961	3.47499	3.21826	-0.162909	0.0197555	-0.00798552	1.85556e-10	-0.110997	0.478812	0.158595	
152990	3.47499	3.21826	-0.162909	0.0323021	-0.0109539	3.26633e-11	-0.117537	0.58869	0.272194	
153200	3.45287	3.21317	-0.170443	0.02762	-0.00991802	1.59483e-10	0.00257075	0.481555	0.312711	
153261	3.45092	3.21418	-0.169564	0.0250812	-0.0133445	2.32417e-11	-0.0100099	0.555374	0.129121	
153320	3.45373	3.21684	-0.16837	0.0221478	-0.0192339	5.17259e-11	-0.132772	0.566956	0.0783726	
153410	3.44657	3.21399	-0.168198	0.0167332	-0.0150647	8.3974e-12	-0.178248	0.630647	0.0107659	
153470	3.44547	3.21369	-0.163604	-0.00473057	-0.0135856	4.26114e-11	0.0384552	0.392137	0.202911	
153500	3.44547	3.21369	-0.163604	-0.00473057	-0.0135856	2.25231e-10	0.0384552	0.392137	0.202911	
153590	3.44986	3.21675	-0.162379	0.000818348	-0.00834467	-3.86983e-11	-0.216572	0.619712	-0.0644971	
153650	3.44537	3.21499	-0.160483	-0.0100457	-0.00573804	3.41365e-11	-0.216042	0.419129	0.0812775	
153680	3.44537	3.21499	-0.160483	-0.00928932	-0.000520901	2.87012e-11	-0.176756	0.661177	0.0354335	
153920	3.43605	3.21383	-0.163404	-0.0141191	-0.00526975	1.66669e-10	-0.0413178	0.646568	0.292402	
154130	3.4398	3.21508	-0.157703	0.0526043	-0.544795	-0.0549038	-1.36503e+08	-5.87502e+07	-3.68885e+07	
154190	3.43552	3.21296	-0.158938	-8.94115e-05	-0.0100132	4.13984e-11	0.0254562	0.627569	0.114995	
154311	3.43932	3.21938	-0.154874	-0.00255618	-0.00732831	4.97453e-11	-0.14569	0.490803	0.110545	
154340	3.43932	3.21938	-0.154874	-0.00341175	-0.00316245	5.0475e-11	-0.0256646	0.454081	0.186944	
154460	3.43262	3.21584	-0.155275	0.0300356	-0.04391	0.00239459	-3.23132e+07	-3.58926e+07	-3.42544e+07	
155571	3.34094	3.0708	-0.135187	0.0711638	-0.313636	3.69572e-11	-0.0537471	0.534723	0.410635	
155780	3.3075	2.98221	-0.136483	0.0499101	-0.350529	2.80156e-11	0.00870993	0.58388	0.116731	
155900	3.28727	2.9317	-0.133883	0.0489902	-0.370437	1.2203e-10	0.0369741	0.495588	0.156449	
156140	3.29397	2.82903	-0.115818	0.0348742	-0.420694	7.22328e-11	0.0434008	0.552004	0.267529	
156170	3.29397	2.82903	-0.115818	0.0318313	-0.422247	4.1142e-11	0.0242816	0.407334	0.171425	
156321	3.28333	2.73838	-0.104261	0.0281633	-0.436328	1.36091e-10	0.0691368	0.544844	0.412398	
156381	3.26801	2.6942	-0.102142	1.05798	-0.0885343	0.106682	-6.17447e+07	-3.28918e+08	5.64457e+07	
156470	3.26679	2.66134	-0.0907399	0.0279501	-0.431756	2.79237e-11	0.0925193	0.548112	0.0715992	
156500	3.26679	2.66134	-0.0907399	0.0218173	-0.435676	1.54518e-11	0.0701251	0.580346	0.0643825	
156650	3.27379	2.53412	-0.0754011	0.0223988	-0.426633	5.85189e-11	0.0228555	0.481982	0.243829	
156920	3.25437	2.43787	-0.0690239	0.0462071	-0.302548	2.34658e-10	0.024852	0.636553	0.300843	
157071	3.26762	2.38725	-0.0481571	0.0277148	-0.21245	7.96583e-11	0.0107929	0.549514	0.241389	
157160	3.22997	2.34344	-0.0341775	0.016505	-0.11667	9.11833e-11	-0.13252	0.557065	0.116902	
157190	3.22997	2.34344	-0.0341775	-0.000213629	-0.106141	1.82148e-11	-0.0676866	0.477206	0.0404774	
157221	3.22997	2.34344	-0.0341775	-0.00314228	-0.0924355	2.05161e-11	-0.240504	0.593797	0.0402277	
157250	3.22997	2.34344	-0.0341775	-0.00249187	-0.0679196	2.42807e-11	-0.0177053	0.41892	0.134893	
157280	3.22997	2.34344	-0.0341775	-0.013514	-0.0608228	-1.94098e-11	-0.0646408	0.537414	-0.035944	
157550	3.23211	2.30088	-0.0364198	-0.01256	-0.00316629	2.48754e-11	-0.129722	0.606812	0.0637832	
157580	3.23211	2.30088	-0.0364198	-0.0143582	-0.0028901	5.61967e-11	-0.131149	0.47717	0.170293	
157670	3.24514	2.30441	-0.0345	-0.0103072	0.00320866	1.75747e-11	-0.198744	0.48601	0.292912	
157730	3.24742	2.30618	-0.0346689	-0.00501766	-0.00391323	6.42366e-12	-0.181875	0.535353	0.214122	
157790	3.23375	2.30441	-0.0346957	-0.00983198	0.00058054	6.68339e-11	-0.109649	0.529127	0.18565	
157910	3.22376	2.29084	-0.0389255	0.00264407	-0.00146692	2.38541e-10	-0.204681	0.482487	0.294496	
158030	3.22705	2.29128	-0.0394411	0.00690024	-0.00408064	6.97739e-11	-0.201967	0.459712	0.12241	
158181	3.228	2.29225	-0.0393996	0.00703684	0.00537808	9.09477e-11	0.0201692	0.461411	0.189474	
158330	3.21868	2.29081	-0.0420242	-0.00134432	0.00225188	3.41503e-11	-0.220776	0.443692	0.227669	
158480	3.21641	2.28874	-0.0398043	0.003221	0.0164137	2.8934e-11	-0.12626	0.49606	0.120558	
158600	3.21686	2.28991	-0.0401553	-0.0012799	0.00936458	3.91048e-11	-0.160027	0.519528	0.0566736	
158630	3.21686	2.28991	-0.0401553	-0.00343578	0.00536402	1.86095e-11	-0.221671	0.417557	0.155079	
158900	3.21884	2.28365	-0.0407499	-0.0136787	0.0273465	2.83056e-10	-0.195757	0.471853	0.393133	
159170	3.22794	2.29186	-0.0425308	-0.0247394	0.0315238	1.17581e-10	-0.131286	0.60673	0.170407	
159200	3.22794	2.29186	-0.0425308	-0.0299165	0.0274993	9.2085e-11	-0.249166	0.565095	0.279045	
159260	3.23089	2.29419	-0.0406937	-0.031165	0.0224949	1.24315e-11	-0.189275	0.67092	0.0591978	
159470	3.24824	2.30803	-0.0456601	-0.0315666	0.0232074	9.99311e-11	-0.156572	0.46275	0.302821	
159560	3.25123	2.31705	-0.0570504	-0.0371808	0.0239116	1.7601e-10	-0.165931	0.483528	0.488916	
159620	3.25353	2.3218	-0.0583177	-0.0167486	0.029169	4.04894e-11	-0.154129	0.596454	0.122695	
159890	3.26121	2.32548	-0.0636622	-0.173577	0.302213	-0.0186835	1.23609e+08	2.0799e+08	-2.81986e+08	
159951	3.25671	2.32355	-0.0589981	-0.0118161	0.0191959	1.27054e-11	-0.0911297	0.544467	0.211756	
159980	3.25671	2.32355	-0.0589981	-0.0160729	0.0187613	5.08968e-11	-0.111998	0.527997	0.154233	
160100	3.26813	2.33561	-0.0695185	0.0141765	-0.0185676	0.104602	-5.27738e+06	3.70657e+07	8.43933e+07	
160190	3.27325	2.34133	-0.0649582	-0.014058	0.020557	7.77665e-11	-0.231192	0.496664	0.172814	
160250	3.27325	2.34133	-0.0649582	-0.000831122	0.00911286	6.48091e-11	-0.252825	0.555317	0.270038	
160371	3.25477	2.33537	-0.0655367	0.000785729	0.0183084	1.8556e-10	-0.205254	0.463289	0.475794	
160460	3.26586	2.34863	-0.0723068	0.00950974	0.0183958	2.88242e-11	-0.165585	0.581908	0.320269	
160491	3.26586	2.34863	-0.0723068	0.0095633	0.0176148	2.44924e-10	-0.213312	0.571445	0.302376	
160520	3.26586	2.34863	-0.0723068	0.0169799	-0.00834839	9.10725e-12	-0.308415	0.487041	0.303575	
160670	3.25747	2.35652	-0.0669845	-0.0146755	0.0327937	1.07137e-10	-0.113676	0.434353	0.162329	
160700	3.25747	2.35652	-0.0669845	-0.00132133	0.0425252	3.31835e-11	-0.273157	0.5945	0.0553059	
160730	3.25747	2.35652	-0.0669845	-0.0186316	0.0535736	2.24745e-11	-0.0633259	0.544498	0.0936437	
160790	3.28545	2.36308	-0.0717389	0.000580787	0.0638388	1.21224e-11	-0.132158	0.494963	0.0673465	
161000	3.25344	2.36418	-0.0732681	0.0468023	0.0880041	4.08019e-11	-0.318099	0.600925	0.170008	
161060	3.25315	2.37508	-0.0770166	0.0488456	0.0791434	2.5536e-10	-0.29317	0.554138	0.31526	
161150	3.23962	2.37985	-0.0784614	0.0667888	0.0800016	1.58861e-10	-0.173241	0.541327	0.294187	
161180	3.23962	2.37985	-0.0784614	0.0954841	0.0854124	4.95634e-11	-0.148578	0.512736	0.275352	
161240	3.21914	2.39125	-0.090854	0.0953869	0.0860059	8.47721e-11	-0.182571	0.545896	0.313971	
161270	3.21914	2.39125	-0.090854	0.101129	0.0831743	1.4815e-10	-0.143926	0.495626	0.352738	
161360	3.18036	2.4104	-0.0944	-0.189083	-0.168432	-0.0607393	-1.77711e+08	6.84038e+07	-3.68504e+07	
161420	3.18674	2.41231	-0.0937369	0.15408	0.0776937	5.28404e-11	-0.151489	0.581925	0.0800612	
161750	3.10844	2.46236	-0.12076	0.249538	0.069752	8.36608e-11	-0.0964942	0.683228	0.126759	
161900	3.07113	2.47318	-0.111351	0.274261	0.0701985	2.4174e-10	-0.0919418	0.717612	0.33575	
162050	3.04448	2.49435	-0.123799	0.319004	0.0719627	1.45869e-10	-0.12946	0.648465	0.243114	
162080	3.04448	2.49435	-0.123799	0.319004	0.0719627	3.64672e-10	-0.12946	0.648465	0.243114	
162560	2.8279	2.53724	-0.148034	0.294507	-0.0247962	7.12991e-11	-0.0994226	0.58656	0.16976	
162800	2.74545	2.52391	-0.14706	0.247838	-0.0786267	-1.22829e-11	-0.17903	0.72104	-0.0186105	
162950	2.70692	2.50189	-0.148845	0.192093	-0.122991	7.24781e-11	-0.111806	0.635123	0.268437	
162980	2.70692	2.50189	-0.148845	0.187149	-0.117688	2.28719e-11	-0.0897515	0.563451	0.0762395	
163190	2.65662	2.48174	-0.143773	0.113411	-0.180476	7.54189e-12	-0.105188	0.562344	0.0837988	
163670	2.62575	2.37791	-0.121349	-0.098555	-0.282411	8.47437e-11	-0.0149191	0.501076	0.156933	
163730	2.62697	2.36792	-0.121382	-0.126445	-0.295846	-9.59893e-12	-0.0653771	0.557264	-0.0799911	
163790	2.63292	2.32837	-0.110602	-0.154997	-0.305608	4.21228e-12	-0.0839601	0.49659	0.00638224	
164120	2.72238	2.20598	-0.067731	-0.342259	-0.283343	5.04812e-11	-0.119451	0.385029	0.168271	
164270	2.77133	2.1542	-0.0635589	-0.380758	-0.263599	-4.17175e-12	0.0829749	0.201683	-0.00604602	
164990	2.99377	2.00932	-0.0228938	-0.0591485	0.00296284	7.43717e-12	-0.195416	0.386036	0.0619764	
165020	2.99377	2.00932	-0.0228938	-0.0557432	0.0062867	7.68029e-12	-0.240806	0.485046	0.0640025	
165051	2.99377	2.00932	-0.0228938	-0.0352788	0.0113338	4.47382e-12	-0.139504	0.528169	0.0372818	
165200	3.04447	2.01862	-0.0176648	-0.00943316	0.0128728	-9.82276e-12	-0.0810589	0.547184	-0.0172329	
165260	3.03751	2.00735	-0.0147663	-0.00190282	0.00778629	6.42952e-11	-0.100744	0.433716	0.214317	
165411	3.03786	2.00743	-0.0237916	0.00471707	0.0062426	6.02308e-12	-0.146141	0.474014	0.200769	
165680	3.04143	2.00184	-0.0409612	-0.00400263	0.000252006	1.01988e-10	-0.228562	0.535285	0.261507	
165740	3.04382	2.00672	-0.0401982	0.00498524	-0.00166834	8.99357e-11	0.0152621	0.51085	0.272532	
165980	3.0361	2.00047	-0.0400436	0.00612526	-0.00627007	4.0122e-12	-0.256091	0.542683	0.033435	
166011	3.0361	2.00047	-0.0400436	0.00952011	-0.00197225	2.14462e-11	-0.145605	0.52332	0.142975	
166370	3.02119	2.00372	-0.0434329	0.0512297	0.00268805	4.78787e-11	-0.265686	0.566765	0.177329	
166580	2.99937	1.99568	-0.0361176	0.044921	0.0116959	-4.22406e-11	-0.192729	0.585918	-0.0828246	
166641	3.00082	1.9987	-0.0376071	0.0313999	0.00487326	-3.1476e-11	-0.108364	0.546288	-0.0552211	
166820	3.02005	2.01508	-0.0382933	-0.0129436	0.00271104	1.05473e-11	-0.208165	0.550306	0.0351576	
167330	3.09316	2.02017	-0.0384856	-0.297933	-0.000867251	8.40341e-11	-0.134938	0.381275	0.164773	
167420	3.13169	2.02093	-0.033197	-0.362705	0.0112068	5.9601e-11	-0.104887	0.458804	0.248338	
167690	3.21072	2.01682	-0.0236006	-0.44372	0.030203	-7.19804e-13	-0.30286	0.299709	-0.00114255	
167810	3.28636	2.02294	-0.0145608	-0.512246	0.0385867	7.41133e-11	-0.177623	0.262428	0.154403	
167871	3.34805	2.03127	-0.00490947	-0.521342	0.0498274	6.91755e-11	-0.196505	0.202204	0.192154	
168141	3.50766	2.03741	0.0188747	-0.622254	0.0665894	1.49442e-10	-0.185933	0.242969	0.311337	
168170	3.50766	2.03741	0.0188747	-0.650057	0.0694205	4.53442e-11	-0.194817	0.253765	0.377869	
168470	3.75197	2.05066	0.0381757	-0.698644	0.0765408	7.04862e-11	-0.10212	0.116204	0.180734	
168590	3.83846	2.06227	0.0527675	-0.688449	0.0501586	4.48601e-11	-0.136571	0.232307	0.299068	
168890	4.07047	2.06082	0.0510389	-0.429524	0.0376209	7.17406e-11	-0.13077	0.208841	0.298919	
168950	4.07266	2.04915	0.062836	-0.316513	0.022064	2.16181e-10	-0.13856	0.186959	0.379265	
169010	4.08676	2.05719	0.0691987	-0.269635	0.0144116	7.172e-11	-0.155843	0.30051	0.217333	
169040	4.08676	2.05719	0.0691987	-0.258988	0.0141843	1.42867e-10	-0.118862	0.306529	0.396853	
169070	4.08676	2.05719	0.0691987	-0.258988	0.0141843	5.00035e-10	-0.118862	0.306529	0.396853	
169100	4.08676	2.05719	0.0691987	-0.234778	0.0103159	2.12445e-10	-0.182264	0.241374	0.442594	
169190	4.12372	2.0543	0.0680324	-0.116006	-0.00646052	7.8426e-11	-0.199578	0.573252	0.0933642	
169400	4.18944	2.04311	0.0816196	0.0138054	-0.00687878	3.62028e-11	-0.130526	0.440091	0.0548527	
169671	4.22719	2.06353	0.112001	-0.468844	0.843189	0.653063	-3.05067e+07	-8.60212e+07	-1.99376e+08	
170030	4.19102	2.05575	0.0853283	0.0568067	0.00995229	9.43972e-11	-0.250262	0.45476	0.393322	
170061	4.19102	2.05575	0.0853283	0.0444774	0.00559165	8.18315e-11	-0.13729	0.407149	0.340965	
170271	4.1804	2.06001	0.0771226	0.0324226	0.00322932	5.32642e-11	-0.135018	0.587002	0.177547	
170421	4.17296	2.05922	0.0722328	0.0053004	0.0105539	1.69679e-11	-0.23283	0.462313	0.188532	
170600	4.16677	2.05251	0.066423	0.0640509	-0.00471734	4.49462e-11	-0.0508032	0.579685	0.21403	
170660	4.14982	2.0528	0.0673658	0.0796858	-0.00607382	3.72664e-12	-0.208796	0.534864	0.0414071	
170691	4.14982	2.0528	0.0673658	0.0845255	-0.000598732	2.70389e-11	-0.235091	0.533093	0.0901296	
170840	4.134	2.06438	0.0701512	0.162181	0.0145399	-4.94871e-11	-0.187184	0.775148	-0.0868195	
171020	4.10093	2.06273	0.0659508	0.154466	0.0311842	7.2012e-12	-0.180221	0.659503	0.0400066	
171111	4.08152	2.07255	0.0689568	0.1535	0.0470765	3.35342e-11	-0.0985751	0.490645	0.0859851	
171650	4.01183	2.13901	0.0305817	0.0211119	0.123732	2.47172e-11	-0.314301	0.634792	0.274636	
171681	4.01183	2.13901	0.0305817	0.0242854	0.132818	9.103e-11	-0.216616	0.500778	0.337148	
171920	3.98997	2.18169	0.00382634	-0.0424649	0.181986	5.42054e-11	-0.180043	0.506796	0.301141	
172370	4.07538	2.29256	0.00460306	-0.264284	0.155195	6.41168e-11	-0.264076	0.483933	0.178102	
172610	4.13696	2.33187	0.00777645	-0.886787	1.06752	0.0287319	2.23309e+08	1.38553e+08	4.50207e+06	
172670	4.14319	2.33238	0.00898712	-0.413944	0.0981758	3.14134e-11	-0.304004	0.280964	0.174519	
172700	4.14319	2.33238	0.00898712	-0.413325	0.0974762	1.00424e-10	-0.396179	0.386519	0.167374	
172730	4.14319	2.33238	0.00898712	-0.42073	0.0977053	5.62766e-12	-0.228293	0.406725	0.0625295	
173090	4.33372	2.37746	0.00830276	-0.249321	0.038612	3.13019e-10	-0.227847	0.306238	0.496856	
173271	4.37266	2.39033	0.0136695	-0.101748	0.0103231	-4.55125e-11	-0.0813392	0.547309	-0.116699	
173300	4.37266	2.39033	0.0136695	-0.0977353	0.000709307	-9.79287e-12	-0.207581	0.394241	-0.0233164	
173390	4.37403	2.38362	0.0525473	-0.0477313	-0.0249425	-2.89581e-12	-0.134118	0.496001	-0.096527	
173570	4.42578	2.37544	0.0602839	0.24577	1.12023	0.210842	-2.30391e+07	-7.09287e+07	6.5293e+07	
173870	4.45041	2.36441	0.0600767	-0.0348888	-0.0349445	1.77066e-10	-0.152909	0.667403	0.3279	
173930	4.4483	2.35711	0.057486	-0.0165293	-0.0312617	8.29763e-11	-0.117218	0.555417	0.23049	
174170	4.45506	2.34659	0.0440798	-0.0216364	-0.0162701	4.7166e-11	-0.0489779	0.624871	0.262034	
174231	4.44848	2.34494	0.0499557	-0.0186491	-0.0126057	3.28989e-11	-0.0323391	0.577256	0.274158	
174350	4.45698	2.32843	0.041168	-0.0151896	-0.00967814	1.06128e-10	-0.0917633	0.614745	0.2211	
174500	4.47245	2.33114	0.0524109	-0.144413	0.30246	0.319369	1.5429e+08	1.35292e+08	2.88164e+08	
174710	4.47565	2.32382	0.0562733	-3.26992e-05	-0.00321237	1.38905e-10	-0.21355	0.515796	0.272362	
174980	4.4519	2.32436	0.0642533	0.0699359	0.00323006	8.40395e-11	-0.142278	0.650006	0.116722	
175010	4.4519	2.32436	0.0642533	0.0734958	0.00876089	1.46617e-11	-0.184991	0.507789	0.0244361	
175100	4.45084	2.32812	0.0603172	0.103847	0.0187069	2.45648e-11	-0.241552	0.576343	0.0818827	
175160	4.45276	2.32939	0.0616871	0.121684	0.0338515	4.5252e-11	-0.249009	0.572393	0.18855	
175340	4.4256	2.33425	0.058975	0.0981898	0.0761179	1.23008e-10	-0.293926	0.670616	0.151862	
175371	4.4256	2.33425	0.058975	0.120038	0.0834891	5.01368e-11	-0.241725	0.612395	0.167123	
175550	4.40634	2.36608	0.0617912	-0.657209	-0.181117	0.175696	-7.48189e+07	1.9605e+08	8.87632e+07	
175640	4.3728	2.39887	0.0422282	0.104142	0.161237	3.53342e-10	-0.245485	0.519241	0.392602	
175760	4.3512	2.44934	0.0296111	0.0800249	0.24791	-4.43395e-11	-0.29984	0.485098	-0.0821101	
176060	4.33374	2.54782	0.00898438	0.0615539	0.362085	-3.75216e-11	-0.430253	0.563515	-0.0833813	
177260	4.26319	3.09946	-0.140457	0.0137287	0.0602586	7.05981e-11	-0.10508	0.547754	0.336182	
177650	4.24703	3.13254	-0.13542	-0.053936	-0.0651549	-8.77631e-11	-0.216282	0.475622	-0.112517	
177770	4.25557	3.13366	-0.123243	-0.0381804	-0.0492317	-1.41186e-10	-0.1052	0.484072	-0.204617	
177950	4.25319	3.12087	-0.121711	-0.0267569	-0.0360745	-6.02412e-11	-0.274866	0.487	-0.167337	
178070	4.25874	3.12043	-0.124536	-0.0120373	-0.0174488	4.75547e-12	-0.106503	0.523213	0.158516	
178310	4.25883	3.09482	-0.13207	0.0401884	-0.00361963	1.06821e-10	-0.113298	0.570529	0.395633	
178400	4.25865	3.09705	-0.1291	0.0267845	-0.00982972	1.28328e-10	-0.272497	0.543958	0.475288	
178460	4.26457	3.10264	-0.125319	0.0211175	0.000338719	2.41475e-10	-0.189893	0.573332	0.57494	
178970	4.26122	3.09255	-0.132154	0.0144145	0.00747349	1.05809e-10	-0.318349	0.639564	0.135652	
179090	4.25111	3.09158	-0.132853	0.0113443	0.0076701	4.70638e-11	-0.203677	0.682478	0.0922819	
179150	4.25449	3.09419	-0.1341	0.00491342	0.0206664	5.13346e-11	-0.111456	0.590038	0.171115	
179211	4.2573	3.09481	-0.135669	0.0092187	0.0259009	1.08032e-10	-0.119009	0.455217	0.163685	
179271	4.25577	3.0952	-0.134349	-0.0214876	0.0216188	4.39023e-11	-0.147546	0.535664	0.209058	
179480	4.24191	3.09886	-0.134225	-0.0094898	0.0278987	8.38484e-11	-0.111787	0.564154	0.232912	
179750	4.25002	3.10554	-0.134325	-0.00961129	0.027068	2.92071e-11	-0.152707	0.463431	0.324523	
180170	4.25563	3.10927	-0.134452	-0.0370542	0.00654941	4.33068e-11	-0.209115	0.55052	0.180445	
180320	4.26842	3.11794	-0.136234	-0.0359671	0.00565179	7.12191e-12	-0.0757803	0.522269	0.118698	
180380	4.26545	3.11707	-0.133498	-0.0378001	0.00420278	-2.81193e-11	-0.148867	0.678826	-0.0468654	
180440	4.2593	3.11715	-0.137421	-0.0266973	0.00688063	7.58555e-11	-0.0913419	0.56245	0.229865	
180560	4.27387	3.11852	-0.135643	-0.0228923	0.00624709	2.8814e-10	-0.145503	0.534112	0.331196	
180680	4.25687	3.11719	-0.137998	-0.0136123	0.00727855	1.21399e-11	-0.133356	0.533069	0.134888	
180800	4.25865	3.11841	-0.13774	-0.0206989	0.0192778	4.72838e-11	-0.110138	0.520126	0.225161	
181070	4.27028	3.12564	-0.135355	0.0129066	0.00720957	4.74214e-11	-0.274334	0.571577	0.121593	
181130	4.26546	3.12672	-0.133895	-0.0192344	0.0109618	2.18683e-11	-0.243224	0.571147	0.182236	
181161	4.26546	3.12672	-0.133895	-0.0267235	0.0205591	1.18403e-10	-0.0904538	0.455154	0.219265	
181280	4.28592	3.13112	-0.132349	-0.0110898	0.00829724	2.87383e-11	-0.16484	0.62785	0.106438	
181460	4.27629	3.13109	-0.132287	-0.0178036	0.00239843	1.62879e-10	-0.17376	0.439776	0.20882	
181761	4.28349	3.13429	-0.134664	-0.0135573	0.0104386	1.85391e-11	-0.189143	0.507992	0.0514976	
182090	4.26221	3.13702	-0.139524	0.0270757	0.0316981	8.27632e-12	-0.230271	0.622798	0.0551755	
182120	4.26221	3.13702	-0.139524	0.0256822	0.038175	7.67142e-11	-0.117268	0.539327	0.232467	
182300	4.2819	3.14527	-0.138114	0.0128877	0.0331835	6.45344e-11	-0.183815	0.574732	0.0827364	
182510	4.28135	3.1498	-0.146441	0.00286349	0.0144451	6.95795e-11	-0.109618	0.467902	0.257702	
182630	4.27187	3.14993	-0.146976	0.0258714	-0.0195435	1.77312e-10	-0.161472	0.701535	0.203807	
183170	4.27841	3.14954	-0.144315	0.00251926	0.00225811	1.42467e-10	-0.151547	0.513761	0.296805	
183231	4.27939	3.15301	-0.145997	0.0157978	-0.00475798	6.30974e-11	-0.183944	0.507038	0.131453	
183380	4.27305	3.14957	-0.146427	-0.02284	0.00185766	9.53013e-12	-0.054191	0.548149	0.0186865	
183440	4.25579	3.15008	-0.142501	0.00854881	-0.00489047	1.9843e-11	-0.0537943	0.538387	0.0944904	
183770	4.26441	3.15055	-0.139109	0.0445723	-0.0029527	3.98687e-11	-0.0802515	0.600931	0.0949255	
183830	4.25581	3.14832	-0.139486	0.0460244	-0.0115933	1.02963e-11	-0.0485726	0.554619	0.0490301	
183951	4.26804	3.15273	-0.140695	0.0183618	-0.00899619	1.02713e-11	-0.193548	0.525427	0.038042	
184371	4.25323	3.13379	-0.141511	0.0377429	-0.00835801	5.82062e-11	-0.031905	0.494203	0.388041	
184431	4.24491	3.13417	-0.143868	0.0354284	-0.00864892	1.35326e-10	-0.131594	0.638423	0.265346	
184491	4.24591	3.13529	-0.142678	0.0518354	-0.00612522	3.26625e-11	-0.104072	0.604219	0.21775	
184640	4.22958	3.13771	-0.140533	0.0422049	-0.00723382	1.47155e-10	-0.0767019	0.560008	0.245259	
184700	4.21885	3.13902	-0.142998	0.0378346	-0.00625908	3.83167e-11	-0.0124135	0.594321	0.255445	
184760	4.22091	3.14107	-0.141667	0.0291001	-0.00702093	6.90582e-11	-0.0557015	0.598131	0.104634	
184850	4.22401	3.13561	-0.144339	0.0149341	-0.0039607	1.15953e-10	-0.12764	0.551431	0.203426	
184970	4.22676	3.13303	-0.141956	0.0224214	0.000100644	7.95777e-11	-0.0891572	0.538179	0.265259	
185090	4.21004	3.12723	-0.138699	0.0274394	0.00109546	1.52587e-10	-0.149009	0.494479	0.339083	
185180	4.2184	3.12909	-0.142757	-0.0781203	0.407111	-0.15838	1.69774e+08	2.91979e+07	-5.25941e+07	
185211	4.2184	3.12909	-0.142757	0.0205982	-0.00213019	4.94176e-11	-0.0353504	0.503501	0.274542	
185360	4.21211	3.12808	-0.142104	0.0055893	0.00876983	1.65532e-11	-0.0411143	0.530931	0.275887	
185480	4.20525	3.13129	-0.144558	0.016391	-0.000843221	8.38202e-11	-0.163315	0.558137	0.254001	
185540	4.21009	3.13391	-0.142987	0.015939	-0.00106056	1.10239e-10	-0.101143	0.385824	0.45933	
185600	4.20416	3.13446	-0.142773	-0.0365452	-0.394193	0.0148061	-2.04046e+08	1.87093e+07	7.36623e+06	
185630	4.20416	3.13446	-0.142773	0.0226925	-0.00690555	8.90349e-11	-0.111428	0.583803	0.185489	
185750	4.19756	3.13169	-0.142053	0.0233784	-0.00874947	5.86661e-11	-0.140347	0.516485	0.195554	
185780	4.19756	3.13169	-0.142053	0.0207517	-0.00464933	1.09001e-10	-0.0785261	0.539773	0.363336	
185900	4.18255	3.12425	-0.141364	0.00943085	-0.00321118	9.36535e-11	-0.153378	0.594497	0.130074	
185960	4.1878	3.12352	-0.138116	0.0237937	0.000245385	1.12855e-10	0.0646548	0.493756	0.341984	
186200	4.18162	3.12715	-0.143231	-0.012233	0.0138146	2.03096e-10	-0.20371	0.474639	0.376104	
186230	4.18162	3.12715	-0.143231	0.00432677	0.000442306	1.14028e-11	-0.253462	0.64218	0.0422327	
186291	4.18258	3.12937	-0.142172	0.00614784	0.0039559	8.14523e-11	-0.181566	0.498085	0.246825	
186350	4.18069	3.1303	-0.140916	0.00621261	0.00540584	5.91393e-11	-0.0746166	0.479667	0.281616	
186411	4.18278	3.13219	-0.14418	0.00673154	0.0135548	2.24089e-10	-0.0200115	0.434653	0.298785	
186500	4.17389	3.13398	-0.143905	0.000795434	0.0173311	1.51619e-10	-0.0366134	0.485651	0.421165	
186710	4.17009	3.13608	-0.145645	0.00856086	0.010522	7.19884e-11	-0.034333	0.525179	0.218147	
186891	4.16749	3.1405	-0.145193	0.00289566	0.00841342	-5.16791e-12	-0.0242616	0.490117	-0.021533	
186951	4.15989	3.1402	-0.143176	0.0106118	-0.48276	0.128925	-2.65386e+08	-1.03963e+07	7.04507e+07	
186980	4.15989	3.1402	-0.143176	-0.0101157	0.0125607	3.42326e-11	0.0595024	0.394265	0.228217	
187040	4.16483	3.13939	-0.146374	-0.0124786	0.258772	-0.00434243	2.13403e+08	-65133.4	-3.44637e+06	
187070	4.16483	3.13939	-0.146374	-0.00807275	0.00611666	1.66584e-10	-0.0915953	0.542062	0.264419	
187161	4.16613	3.13954	-0.14631	-0.0127634	0.00106173	7.77671e-11	-0.0394449	0.437535	0.235658	
187370	4.17016	3.14058	-0.14599	-0.00276707	-0.00227476	5.86135e-11	-0.188495	0.468731	0.244223	
187640	4.174	3.14698	-0.150473	-0.000806402	-0.00838568	1.76789e-10	-0.262785	0.415866	0.280617	
187730	4.16172	3.14236	-0.145967	-0.0232298	-0.0179964	2.46411e-11	-0.150793	0.590546	0.117338	
187940	4.17569	3.14277	-0.147656	-0.00950897	-0.0188226	9.08746e-11	-0.182403	0.401063	0.275378	
188090	4.18002	3.13454	-0.147259	-0.00343654	-0.00922499	3.8271e-11	0.0613967	0.453005	0.425233	
188210	4.17357	3.13344	-0.146906	-0.0201891	-0.00875759	1.39427e-10	-0.0817802	0.628177	0.244609	
188241	4.17357	3.13344	-0.146906	-0.0174378	-0.00240822	1.0906e-10	-0.0439123	0.528397	0.302945	
188330	4.19006	3.13563	-0.143557	-0.0180416	0.00294767	1.62874e-10	0.0478919	0.489545	0.301618	
188450	4.18824	3.13314	-0.144419	-0.0166493	0.00677701	5.59759e-11	-0.0795534	0.481	0.155489	
188781	4.17346	3.1329	-0.142542	-0.0140906	0.00192264	3.60403e-11	-0.17834	0.596361	0.0667413	
188931	4.17984	3.1342	-0.140071	0.0124805	-0.00117577	6.30626e-11	-0.0940799	0.520953	0.140139	
189051	4.16441	3.13036	-0.141363	-0.00227536	0.00332444	7.05434e-11	-0.10121	0.530078	0.335921	
189080	4.16441	3.13036	-0.141363	-0.00227536	0.00332444	3.62794e-10	-0.10121	0.530078	0.335921	
189110	4.16441	3.13036	-0.141363	0.00194726	0.00113013	1.97355e-11	-0.229209	0.507456	0.164463	
189231	4.17346	3.13293	-0.143228	-0.0100297	0.00765644	1.21242e-10	0.0499977	0.558929	0.1837	
189531	4.17881	3.13655	-0.142891	-0.00752464	0.00673175	5.96718e-11	-0.121484	0.458294	0.165755	
189860	4.1786	3.13928	-0.142539	-0.0177055	0.00110704	1.85477e-11	-0.230696	0.537027	0.206086	
189890	4.1786	3.13928	-0.142539	-0.0160937	-0.00586093	6.78529e-11	-0.106997	0.517693	0.251307	
189920	4.1786	3.13928	-0.142539	-0.0115834	-0.0112008	2.07012e-11	-0.12879	0.42582	0.34502	
190070	4.17245	3.13452	-0.14508	-0.0219116	-0.0114563	2.02766e-11	-0.120713	0.509453	0.168972	
190190	4.18472	3.13621	-0.147011	-0.0290212	-0.0258257	1.1945e-11	-0.147258	0.397154	0.0442406	
190280	4.18576	3.13903	-0.143315	-0.0252816	-0.0147764	4.00636e-11	-0.131101	0.525246	0.0785562	
190640	4.18831	3.1263	-0.138865	-0.0297677	-0.0347717	1.13319e-09	-0.0366338	0.499911	2.90562	
190670	4.18831	3.1263	-0.138865	-0.0312744	-0.0480447	4.42734e-10	0.0197411	0.545529	4.91927	
190700	4.18831	3.1263	-0.138865	-0.0352133	-0.0571277	3.10478e-09	-0.225124	0.572001	4.92822	
190760	4.1798	3.12419	-0.133992	-0.0499124	-0.103388	5.89891e-10	-0.19331	0.571759	3.27717	
190791	4.1798	3.12419	-0.133992	-0.0548554	-0.118674	1.47235e-09	-0.103547	0.766311	2.23084	
190880	4.17497	3.12295	-0.129418	-0.0773262	-0.206385	1.03151e-09	-0.0103729	0.495789	1.27347	
190910	4.17497	3.12295	-0.129418	-0.074417	-0.235057	3.63362e-10	-0.134127	0.489562	1.1011	
191000	4.15946	3.12062	-0.121505	-0.0920746	-0.237253	2.86695e-10	-0.152437	0.494923	0.382259	
191120	4.1799	3.11331	-0.126879	-0.0451117	-0.059349	-6.14836e-11	-0.179168	0.453564	-0.107866	
191331	4.15329	3.1144	-0.120429	-0.128688	-0.0164769	4.29388e-11	-0.0843486	0.554249	0.0477098	
191390	4.15212	3.11295	-0.126592	-0.191382	-0.102695	3.48149e-11	-0.0982689	0.476867	0.128944	
191420	4.15212	3.11295	-0.126592	-0.169826	-0.127493	6.14691e-11	-0.158434	0.552656	0.093135	
191840	4.0954	3.11902	-0.104823	0.0824076	0.0852322	2.60143e-10	-2.74926	1.71372	2.89048	
191900	4.10121	3.11796	-0.105674	0.078011	0.0806969	-2.58735e-11	-0.0713737	0.756699	-0.287483	
191930	4.10121	3.11796	-0.105674	0.077633	0.080313	-1.80881e-09	-0.244555	-1.1135	-3.01468	
192110	4.05824	3.14303	-0.0894992	0.0635003	0.065705	1.3714e-10	-0.264651	0.616594	0.198753	
192140	4.05824	3.14303	-0.0894992	0.0622405	0.064401	1.81501e-10	-0.280336	0.648945	0.288097	
192321	4.15005	3.16001	-0.0916844	0.0506805	0.0524374	1.40344e-11	-0.318896	0.509988	0.233907	
192350	4.15005	3.16001	-0.0916844	0.0504272	0.0521755	1.21152e-10	-0.277491	0.556679	0.224356	
192380	4.15005	3.16001	-0.0916844	0.0496747	0.0513968	1.07909e-10	-0.248133	0.541848	0.15639	
192471	4.06667	3.15591	-0.0795213	0.0458475	0.0474362	1.02017e-10	-0.258667	0.612692	0.161932	
192500	4.06667	3.15591	-0.0795213	0.0429569	0.0444442	2.21357e-11	-0.277281	0.676754	0.184464	
192711	4.06993	3.15716	-0.0766542	0.00457791	0.00608945	7.07032e-11	-0.290087	0.629193	0.157118	
192740	4.06993	3.15716	-0.0766542	0.00341862	0.00331015	9.605e-12	-0.277304	0.661022	0.160083	
192771	4.06993	3.15716	-0.0766542	0.00341862	0.00331015	1.58482e-10	-0.277304	0.661022	0.160083	
192830	4.06293	3.15454	-0.0796667	0.00105142	-0.00232936	1.86346e-11	-0.276753	0.66345	0.155288	
192890	4.05726	3.1532	-0.0652726	0.00127183	-0.00137022	2.11688e-10	-0.275524	0.608273	0.24332	
192950	4.05693	3.15253	-0.0652979	-1.95436e-05	0.000189624	2.07417e-11	-0.289803	0.603002	0.230463	
193161	4.05806	3.14816	-0.0772778	-0.00183744	0.000957462	6.63275e-11	-0.276031	0.681053	0.245657	
193250	4.07055	3.14846	-0.0821553	-0.00315232	-0.00103387	5.90612e-11	-0.278913	0.679901	0.246088	
193491	4.05479	3.14638	-0.0766751	-0.000503532	0.000714574	1.0636e-10	-0.275713	0.646187	0.236355	
193580	4.06032	3.14855	-0.0736672	0.000595087	-0.00164773	4.9714e-11	-0.276387	0.679575	0.236733	
193670	4.05854	3.14823	-0.0761615	0.000825753	-0.00381374	9.93496e-11	-0.277948	0.687178	0.236547	
193910	4.0619	3.1442	-0.0790843	-5.34376e-05	-0.000333414	3.56005e-11	-0.357476	0.689813	0.237337	
194631	4.05414	3.1409	-0.0850421	-0.00134874	-0.00184107	9.28359e-11	-0.275666	0.606083	0.238041	
194810	4.0559	3.14217	-0.0842344	0.000472175	0.00239181	3.1637e-11	-0.334164	0.601952	0.175761	
194960	4.05311	3.14101	-0.0858476	0.000402104	-1.31129e-05	5.78785e-11	-0.278479	0.684502	0.192928	
195590	4.05212	3.14092	-0.0861691	-6.9614e-05	-0.0024675	4.3097e-11	-0.276975	0.680696	0.159618	
195680	4.05191	3.14085	-0.0842703	0.000420034	-0.00163117	9.24925e-11	-0.276497	0.675193	0.171282	
195800	4.0542	3.14149	-0.0842092	-0.000490022	-0.00252424	1.05597e-11	-0.275937	0.605766	0.175995	
195980	4.05236	3.14044	-0.0864633	-0.0016501	-0.000580822	9.80991e-11	-0.279475	0.66455	0.148635	
196070	4.05084	3.14014	-0.0850376	-0.00189199	-0.000853842	3.41516e-11	-0.276161	0.609909	0.162627	
196100	4.05084	3.14014	-0.0850376	0.000267915	-0.000355425	7.10631e-11	-0.275759	0.607117	0.157918	
196280	4.05369	3.14085	-0.0832651	-0.00284031	-0.000607654	4.31475e-11	-0.35752	0.587107	0.159806	
196340	4.05475	3.1418	-0.0838595	-0.000725587	-0.0010809	1.23576e-10	-0.272385	0.69457	0.228844	
196790	4.05404	3.14163	-0.0834325	-0.00113279	0.00033346	2.4297e-11	-0.286398	0.679682	0.101238	
197151	4.05376	3.14163	-0.0837879	0.0837909	-0.286707	-0.0990598	-1.2044e+08	-5.68333e+07	-5.71445e+07	
197240	4.05391	3.14197	-0.083126	-0.00198527	0.0010044	5.27167e-11	-0.277004	0.678515	0.159748	
197360	4.0581	3.14345	-0.0828974	-0.000547956	-0.000725879	4.16161e-11	-0.276116	0.606026	0.154134	
197450	4.05686	3.14319	-0.082275	0.00113923	-0.000687391	1.19937e-10	-0.312487	0.677725	0.235172	
197570	4.05467	3.1426	-0.0844882	0.238285	-0.996635	-0.78355	-1.07635e+08	-2.56308e+07	-8.45253e+07	
197750	4.0513	3.1417	-0.085768	-0.000514814	-0.00142536	8.51722e-11	-0.285702	0.680204	0.236589	
197781	4.0513	3.1417	-0.085768	-0.000514815	-0.00142536	3.052e-10	-0.285702	0.680204	0.236589	
197870	4.05477	3.14215	-0.0848067	-0.00111045	0.00217655	1.40573e-10	-0.277353	0.68567	0.24662	
197931	4.05462	3.14287	-0.0837354	-0.000352054	0.00236525	3.95469e-11	-0.277437	0.664281	0.14647	
