MS	x	y	z	vx	vy	vz	ax	ay	az	
5030	0.0379248	-0.0166908	0.665927	0	0	0	-60584.3	-73518.1	-47782.9	
5060	0.0388127	-0.0146109	0.666227	-1.27227e-05	-1.54388e-05	-1.00344e-05	22670.3	53107.9	7665.25	
5120	0.0344872	-0.00946179	0.669268	-0.0134353	0.00275472	4.32172e-10	-111360	132565	78310	
5150	0.03603	-0.00698236	0.668878	-0.0134587	0.00278256	1.64455e-05	34631.6	61814.8	3579.31	
5180	0.0358311	-0.00598676	0.669662	-0.013441	0.00281409	1.8271e-05	-5301.02	26539.5	20908.3	
5240	0.0295653	-0.03038	0.669632	-0.00373442	-0.00041908	2.64727e-10	-162114	-603666	-7576.69	
5270	0.0249678	-0.0218766	0.671373	-0.0038706	-0.000926159	-6.36415e-06	-126331	233661	47835.5	
5331	0.0295754	-0.0319342	0.669134	-0.00096766	0.00127516	2.17103e-10	129281	-282199	-62818.2	
5390	0.0274566	-0.028765	0.668392	-0.000897581	0.0011828	1.05038e-10	-27189.3	28298	-17198.3	
5420	0.0298822	-0.0337143	0.667781	-0.000903291	0.00118874	-3.61154e-06	18647.6	-57673.4	-18591.5	
5450	0.0298822	-0.0337143	0.667781	-0.000882592	0.00112472	-2.42481e-05	18647.6	-57673.4	-18591.5	
5480	0.0406976	-0.0147282	0.666653	-0.000879795	0.00111607	-2.70368e-05	332141	473849	-16732	
5510	0.0365305	-0.0126602	0.664165	-0.000720367	0.00134352	-3.50682e-05	-125782	62419.8	-75083.3	
5541	0.0374462	-0.0115373	0.665504	-0.00083357	0.0013997	-0.000102643	27811.1	34105.7	40653.1	
5570	0.0368765	-0.0159452	0.664901	-0.000809375	0.00142937	-6.7275e-05	-17489.5	-135335	-18509	
5630	0.0353244	-0.0133544	0.664403	0.00162995	-0.00214957	1.82102e-10	46687.4	-205035	-90787.1	
5690	0.0370496	-0.0154191	0.665621	0.00016837	0.000774587	1.93656e-10	9572.62	-127608	4253.05	
5720	0.0370496	-0.0154191	0.665621	0.000185601	0.000544892	7.65568e-06	9572.62	-127608	4253.05	
5751	0.0370496	-0.0154191	0.665621	0.000211734	0.000196523	1.92665e-05	9572.62	-127608	4253.05	
5780	0.0331141	-0.0140686	0.666805	0.000213744	0.000169725	2.01596e-05	-116551	-3389.81	17923.3	
5811	0.0324816	-0.0120657	0.667667	0.000171786	0.000168505	2.6612e-05	-21272.1	67354.8	28996.6	
5840	0.0373273	-0.0160693	0.668071	0.000164766	0.000190732	3.61809e-05	164644	-136032	13706.5	
5871	0.0371043	-0.0156258	0.669001	0.000224038	0.00014176	4.11152e-05	-7655.8	15226.7	31925.6	
5900	0.0373648	-0.0159692	0.667205	0.000219674	0.000150439	5.93128e-05	9012	-11879.6	-62110.6	
5930	0.0368123	-0.0243035	0.66769	0.000224541	0.000144024	2.57731e-05	-19312.1	-291297	16954.4	
5960	0.0376462	-0.0249282	0.66692	0.000211215	-5.69705e-05	3.74716e-05	29392.7	-22020.1	-27154.7	
5991	0.0357837	-0.0228003	0.66614	0.000227087	-6.88614e-05	2.28081e-05	-66448.3	75918.9	-27805.6	
6020	0.0356516	-0.0217846	0.666712	0.000203166	-4.15305e-05	1.2798e-05	-4766.38	36662.4	20642.6	
6050	0.0382886	-0.0235011	0.667104	0.000199734	-1.51336e-05	2.76607e-05	95753.9	-62332.7	14217.4	
6080	0.0382886	-0.0235011	0.667104	0.000354855	-0.000116113	5.06929e-05	95753.9	-62332.7	14217.4	
6110	0.0368212	-0.0131438	0.667196	0.000397945	-0.000144162	5.70908e-05	-54511.9	384765	3421.72	
6141	0.0381226	-0.0181143	0.665546	0.000379956	-1.71901e-05	5.82199e-05	83724.5	-66567.6	2271.25	
6201	0.0343824	-0.0115918	0.665705	-0.0106872	0.0016284	3.5561e-10	-142154	247904	6044.04	
6230	0.0343824	-0.0115918	0.665705	-0.0109644	0.00211182	1.17862e-05	-142154	247904	6044.04	
6261	0.0356055	-0.0145587	0.666476	-0.01099	0.00215644	1.28742e-05	90355.8	-301914	-101728	
6350	0.038837	-0.01674	0.666793	-0.000963798	-0.00417128	2.04021e-10	-102370	-328017	127232	
6410	0.0363429	-0.0125531	0.667934	-0.000912094	-0.00394751	2.33341e-10	641.112	187782	-9493.47	
6471	0.0395184	-0.0137438	0.666037	-0.000867503	-0.00375452	6.25091e-11	181220	-14000.2	-47817.1	
6531	0.0262023	-0.0254996	0.665942	-0.000816864	-0.00353534	2.1564e-10	-561742	-495918	-4001.47	
6560	0.0262023	-0.0254996	0.665942	-0.00191226	-0.00450238	-7.80265e-06	-561742	-495918	-4001.47	
6590	0.0262023	-0.0254996	0.665942	-0.00351322	-0.00591575	-1.92068e-05	-561742	-495918	-4001.47	
6620	0.0262023	-0.0254996	0.665942	-0.00561976	-0.00777544	-3.42123e-05	-561742	-495918	-4001.47	
6650	0.041399	-0.00715384	0.661259	-0.00582198	-0.00795397	-3.56529e-05	553918	899039	-299276	
6680	0.0405542	-0.019291	0.667442	-0.00548963	-0.00741455	-0.000215218	-37472.1	-538352	274245	
6710	0.0436309	-0.0112701	0.660004	-0.00552111	-0.00786676	1.5147e-05	137371	358128	-332090	
6740	0.0436309	-0.0112701	0.660004	-0.00528208	-0.00724362	-0.00056269	137371	358128	-332090	
6770	0.0436309	-0.0112701	0.660004	-0.00491942	-0.00629816	-0.00143941	137371	358128	-332090	
6800	0.0359688	-0.0186657	0.66625	-0.00490294	-0.00625519	-0.00147926	-353879	-341572	288465	
6831	0.0359688	-0.0186657	0.66625	-0.00527451	-0.00661384	-0.00117637	-353879	-341572	288465	
6860	0.0360503	-0.0181136	0.664817	-0.00541252	-0.00674705	-0.00106387	3821.9	25884.6	-67160.5	
6890	0.0367416	-0.020075	0.666394	-0.00541172	-0.00674162	-0.00107797	32749.7	-92922.7	74720.7	
6921	0.0367416	-0.020075	0.666394	-0.00537439	-0.00684755	-0.000992791	32749.7	-92922.7	74720.7	
6950	0.0358476	-0.0133754	0.665396	-0.00535572	-0.00690051	-0.0009502	-42943.6	321839	-47936.2	
6980	0.0350188	-0.0147482	0.666761	-0.00537376	-0.00676534	-0.000970334	-40219	-66613.3	66193.6	
7010	0.0357209	-0.0148756	0.665766	-0.00537738	-0.00677134	-0.000964376	34471.5	-6255.33	-48810.3	
7101	0.0358063	-0.0187411	0.666279	0.00116388	-0.00333489	2.08164e-10	-47816.9	-248269	-8086.32	
7130	0.0364936	-0.0215097	0.666555	0.00112372	-0.00354344	-6.7923e-06	34670.5	-139641	13923.2	
7190	0.0363164	-0.0159081	0.666357	0.00196136	-0.00459947	1.0506e-10	-27210	-113808	-7666.44	
7220	0.0363164	-0.0159081	0.666357	0.00193197	-0.00472238	-8.27965e-06	-27210	-113808	-7666.44	
7250	0.0363164	-0.0159081	0.666357	0.00187809	-0.00494772	-2.34592e-05	-27210	-113808	-7666.44	
7281	0.0363164	-0.0159081	0.666357	0.00179891	-0.0052789	-4.57685e-05	-27210	-113808	-7666.44	
7310	0.0340414	-0.00682115	0.669052	0.00179565	-0.00529255	-4.66885e-05	-121432	485040	143839	
7340	0.0340414	-0.00682115	0.669052	0.00167179	-0.00479781	0.000100027	-121432	485040	143839	
7370	0.0379795	-0.0128581	0.66516	0.00163536	-0.0046523	0.000143178	243260	-379687	-192883	
7400	0.0375221	-0.0127354	0.665815	0.00180321	-0.00491428	1.00891e-05	-24891.9	6680.61	35632.5	
7430	0.0382154	-0.0122204	0.665266	0.00179649	-0.00491248	1.97099e-05	38177.5	28358.1	-30224.7	
7461	0.0381153	-0.00815364	0.66538	0.00181138	-0.00490142	7.92229e-06	-5548.93	225596	6333.88	
7490	0.0272416	-0.0264485	0.668014	0.00180788	-0.00475929	1.19126e-05	-606599	-1.0206e+06	146925	
7520	0.0282696	-0.0303865	0.668859	0.00151671	-0.00524918	8.24368e-05	57886.4	-221745	47560.4	
7550	0.0280128	-0.035794	0.668519	0.0015445	-0.00535562	0.000105266	-14576.3	-306937	-19281.8	
7580	0.02933	-0.0320801	0.668783	0.00153444	-0.00556741	9.19614e-05	75219.2	212096	15054.4	
7640	0.0270459	-0.0349882	0.668908	0.000909496	0.00368141	2.39608e-10	63700.7	-259165	33690	
7671	0.0271302	-0.0269713	0.667448	0.000928606	0.00360366	1.01072e-05	4948.45	470518	-85729	
7700	0.0271302	-0.0269713	0.667448	0.000934396	0.00415417	-9.01957e-05	4948.45	470518	-85729	
7730	0.0271302	-0.0269713	0.667448	0.000944639	0.00512814	-0.000267655	4948.45	470518	-85729	
7760	0.0232204	-0.024053	0.671132	0.000944936	0.00515637	-0.000272799	-235319	175643	221774	
7790	0.0240802	-0.0217943	0.672099	0.000839043	0.00523541	-0.000173	51975.5	136539	58438.4	
7820	0.0242715	-0.025256	0.673033	0.000849958	0.00526408	-0.000160728	5552.8	-85558.5	32478.8	
7881	0.0243363	-0.0239246	0.673144	-0.0060769	0.00145616	1.57041e-10	24125.7	-52980.3	14604.1	
7910	0.0229745	-0.0289288	0.672294	-0.00605953	0.00141801	1.05151e-05	-84691.6	-311207	-52838.6	
7940	0.0248319	-0.0290809	0.671941	-0.00611543	0.00121262	-2.43584e-05	116453	-9533.47	-22158.6	
7970	0.02398	-0.0209645	0.67156	-0.00605603	0.00120775	-3.56593e-05	-53883.8	513366	-24113.3	
8000	0.0255417	-0.0327141	0.671437	-0.00608513	0.00148497	-4.86804e-05	99495.8	-748597	-7799.81	
8030	0.0245204	-0.0241641	0.66993	-0.00603439	0.00110319	-5.26583e-05	-65570.2	548979	-96774.9	
8060	0.0245204	-0.0241641	0.66993	-0.00612684	0.00187725	-0.000189111	-65570.2	548979	-96774.9	
8090	0.0239743	-0.0192109	0.671706	-0.00616225	0.0021737	-0.000241369	-35587.5	322734	115727	
8151	0.0246883	-0.0270027	0.670509	6.51403e-06	-0.00270364	3.97028e-10	29209.2	-292466	19486.5	
8180	0.0246468	-0.0319889	0.671972	2.92972e-05	-0.00293176	1.51998e-05	-2759.76	-331516	97278.7	
8210	0.0246468	-0.0319889	0.671972	2.46608e-05	-0.00348871	0.000178628	-2759.76	-331516	97278.7	
8300	0.0263371	-0.0237692	0.668409	0.00165064	-0.000979903	1.77521e-10	-46117.2	-214174	83703.1	
8330	0.0266351	-0.0224486	0.667151	0.00164095	-0.00102488	1.75778e-05	20638.9	91476.1	-87082.2	
8361	0.0274578	-0.0285027	0.667615	0.00165396	-0.00096725	-3.7284e-05	57226.1	-421094	32227.4	
8390	0.0274578	-0.0285027	0.667615	0.0017398	-0.00159889	1.10571e-05	57226.1	-421094	32227.4	
8420	0.0275334	-0.0211246	0.666682	0.0017604	-0.00175048	2.2659e-05	-4588.39	281935	-115614	
8450	0.0386394	-0.0124623	0.665668	0.00175902	-0.0016659	-1.20252e-05	791118	617046	-72189.5	
8510	0.0333769	-0.00207326	0.668359	0.000771846	-0.000478892	1.39889e-10	-305764	697125	194756	
8540	0.0333769	-0.00207326	0.668359	0.000377411	0.0004204	0.000251235	-305764	697125	194756	
8570	0.0377661	-0.000863749	0.670788	0.000368238	0.000441314	0.000257078	-5994.15	235001	-18149.4	
8630	0.0384347	-0.000833947	0.671225	0.00220602	-0.00264992	1.95093e-10	49409.5	2202.64	32241.2	
8660	0.0391651	-0.00953765	0.671577	0.00224012	-0.0026484	2.22466e-05	54488.3	-649277	26264.9	
8690	0.0391651	-0.00953765	0.671577	0.00232675	-0.00368075	6.40077e-05	54488.3	-649277	26264.9	
8720	0.0378316	-0.00834138	0.666733	0.00235291	-0.00399241	7.66149e-05	-101028	90629.1	-366944	
8751	0.0378316	-0.00834138	0.666733	0.00221046	-0.00386462	-0.000440776	-101028	90629.1	-366944	
8780	0.0378316	-0.00834138	0.666733	0.00198011	-0.00365798	-0.00127741	-101028	90629.1	-366944	
8811	0.0374612	-0.0112521	0.665312	0.00191646	-0.00360089	-0.00150858	-28614	-224896	-109844	
8871	0.0381696	-0.0183853	0.665641	0.000483113	-0.000184593	2.50586e-10	85940.3	-225700	-103328	
8930	0.0375143	-0.0239989	0.666363	0.00117892	-0.000494179	3.28626e-10	-51765.2	-443455	57043.5	
8961	0.0375143	-0.0239989	0.666363	0.00106555	-0.00146534	0.000124926	-51765.2	-443455	57043.5	
8991	0.0375143	-0.0239989	0.666363	0.000905598	-0.00283562	0.00030119	-51765.2	-443455	57043.5	
9020	0.0378026	-0.0221662	0.664907	0.000882304	-0.00303518	0.000326859	23376.6	148614	-118043	
9080	0.0381923	-0.0144397	0.66529	0.000205781	-0.000191662	2.74425e-10	276360	-211210	-268530	
9110	0.0384725	-0.0157741	0.666547	0.000230654	-0.000210671	-2.41674e-05	23238.8	-110671	104295	
9141	0.0375404	-0.00483086	0.666158	0.000241111	-0.000260473	2.27655e-05	-77631.8	911398	-32359.8	
9170	0.0384578	-0.0135728	0.6687	0.000192203	0.000313708	2.37888e-06	76791.4	-731740	212706	
9200	0.0384578	-0.0135728	0.6687	0.000309694	-0.000805853	0.000327819	76791.4	-731740	212706	
9231	0.0384578	-0.0135728	0.6687	0.000498601	-0.00260593	0.000851075	76791.4	-731740	212706	
9260	0.0355177	-0.000694196	0.669205	0.000507816	-0.00269374	0.0008766	-770253	-92308.2	404606	
9290	0.0355177	-0.000694196	0.669205	-0.000277842	-0.0027879	0.0012893	-770253	-92308.2	404606	
9320	0.039481	-0.0113375	0.666479	-0.000347165	-0.0027962	0.00132571	340106	-992567	-216442	
9351	0.034771	-0.0024789	0.667861	-0.000255336	-0.0030642	0.00126727	-411054	773113	120679	
9380	0.034771	-0.0024789	0.667861	-0.000723937	-0.00218285	0.00140485	-411054	773113	120679	
9411	0.0358363	-0.00532926	0.668158	-0.00108155	-0.00151024	0.00150984	93768.1	-250894	26113.7	
9440	0.0402489	-0.0125488	0.666091	-0.00101404	-0.00169088	0.00152864	391229	-640096	-183310	
9500	0.036588	-0.0138764	0.665042	-0.00485658	-0.00320658	8.02827e-11	-470077	496250	78896.7	
9530	0.0373472	-0.0186827	0.665379	-0.00494119	-0.00311726	1.42015e-05	68868.9	-435961	30563.8	
9560	0.0376409	-0.014589	0.66633	-0.00490401	-0.00335268	3.07059e-05	26744.1	372729	86619.8	
9590	0.041934	-0.0194351	0.667006	-0.00489999	-0.00329677	4.36989e-05	394408	-445225	62105.7	
9620	0.041934	-0.0194351	0.667006	-0.00448587	-0.00376425	0.00010891	394408	-445225	62105.7	
9650	0.0414725	-0.0215506	0.665939	-0.00429655	-0.00397796	0.000138721	-42830.1	-196343	-99016.7	
9680	0.0414725	-0.0215506	0.665939	-0.00435566	-0.00424892	2.07753e-06	-42830.1	-196343	-99016.7	
9710	0.0414725	-0.0215506	0.665939	-0.00445331	-0.00469658	-0.000223681	-42830.1	-196343	-99016.7	
9740	0.02861	-0.0262415	0.668202	-0.00445845	-0.00472014	-0.000235563	-1.21923e+06	-444646	214454	
9770	0.0255257	-0.0256571	0.671136	-0.00467791	-0.00480017	-0.000196961	-294050	55710.8	279741	
9800	0.0255257	-0.0256571	0.671136	-0.00499548	-0.00474001	0.000105159	-294050	55710.8	279741	
9830	0.0246263	-0.022223	0.671431	-0.00525131	-0.00469154	0.000348534	-86393.1	329876	28288	
9860	0.0247615	-0.024881	0.671475	-0.00531351	-0.00445403	0.000368901	13079	-257153	4302.4	
9920	0.0256013	-0.0263918	0.671337	-0.000315723	-0.000604099	4.70545e-10	81881	-147298	-13465.7	
9950	0.0248761	-0.0219859	0.671363	-0.000291159	-0.000648289	-4.03923e-06	-71654.1	435325	2622.51	
10010	0.0251069	-0.0185789	0.670968	0.0016747	-0.00474276	2.79357e-10	22968.1	339062	-39386.8	
10040	0.0255042	-0.020761	0.670796	0.00167745	-0.00470207	-4.72614e-06	40016.5	-219786	-17306.8	
10100	0.0254412	-0.0167972	0.672373	0.00128946	-0.00148555	1.71278e-10	40610.9	431817	33143.6	
10130	0.026103	-0.019408	0.670589	0.00131139	-0.00125237	1.78977e-05	67664.3	-266955	-182337	
10160	0.0247118	-0.0252127	0.670557	0.00133575	-0.00134847	-4.77436e-05	-143271	-597777	-3376.01	
10190	0.0261446	-0.0173567	0.672882	0.0012326	-0.00177887	-5.01744e-05	148077	811899	240288	
10220	0.0261446	-0.0173567	0.672882	0.00147248	-0.000463597	0.000339092	148077	811899	240288	
10250	0.0261446	-0.0173567	0.672882	0.00184564	0.00158239	0.000944618	148077	811899	240288	
10280	0.0277084	-0.0249469	0.66721	0.00186341	0.00167982	0.000973452	165136	-801504	-598881	
10310	0.0272787	-0.0273086	0.667171	0.00190799	0.00146341	0.000811754	-45598.6	-250598	-4115.99	
10370	0.0446367	-0.0107746	0.675364	1.50919e-05	-0.00129406	1.62883e-10	2.36003e+06	1.35098e+06	997274	
10461	0.0401441	-0.016726	0.66702	-0.00145126	5.23782e-05	3.62239e-10	35922.4	-136877	34961.9	
10490	0.0394776	-0.0160478	0.666665	-0.00144479	2.77403e-05	6.2935e-06	204507	6338.99	-367754	
10521	0.0408612	-0.0217069	0.667022	-0.00132822	3.13535e-05	-0.000203326	152598	-624161	39381.9	
10550	0.0392273	-0.019307	0.665672	-0.00124124	-0.000324418	-0.000180878	-181194	266155	-149728	
10580	0.0390479	-0.0123126	0.67045	-0.00129016	-0.000252556	-0.000221305	94930.2	126317	351158	
10610	0.0394223	-0.0140035	0.670391	-0.00123036	-0.000172976	-7.51088e-08	41977.1	-189605	-6526.65	
10640	0.0384734	-0.0124526	0.664356	-0.00120769	-0.000275363	-3.5995e-06	-107058	174987	-680986	
10670	0.0384734	-0.0124526	0.664356	-0.00136185	-2.33812e-05	-0.000984219	-107058	174987	-680986	
10700	0.0379176	-0.0197475	0.664826	-0.00140682	5.01135e-05	-0.00127023	-63473	-833009	53679.3	
10730	0.0388815	-0.0141414	0.665376	-0.00142586	-0.000199789	-0.00125413	132983	-775492	-105116	
10761	0.0389997	-0.011925	0.669617	-0.00133809	-0.000711614	-0.00132351	13624.8	255610	489131	
10790	0.0370411	-0.018302	0.665137	-0.00133687	-0.000688609	-0.00127948	-99824	-208262	-195881	
10821	0.0357074	-0.0158218	0.667456	-0.00135483	-0.000726096	-0.00131474	-155996	290103	271310	
10850	0.0357074	-0.0158218	0.667456	-0.00151863	-0.000421487	-0.00102987	-155996	290103	271310	
10880	0.0378471	0.00112177	0.66446	-0.00164967	-0.0001778	-0.000801966	251985	1.99537e+06	-352884	
10910	0.0365026	-0.00752184	0.666885	-0.001438	0.00149831	-0.00109839	-159210	-1.02356e+06	287133	
10940	0.0374987	-0.0128886	0.666476	-0.00152397	0.000945589	-0.000943336	118825	-640205	-48760.7	
10970	0.0381992	-0.00708139	0.666475	-0.00143842	0.000484641	-0.000978444	83927.6	695795	-139.483	
11000	0.0367983	-0.0099374	0.666649	-0.00141072	0.000714254	-0.00097849	-169170	-344887	21042.2	
11031	0.0413961	-0.0184262	0.667612	-0.00144117	0.000652174	-0.000974703	558866	-1.03182e+06	117023	
11120	0.0362244	-0.014423	0.666026	0.000619135	-0.00491354	2.13379e-10	-514546	83487	5634.05	
11150	0.0362244	-0.014423	0.666026	-0.000415102	-0.00474573	1.13247e-05	-514546	83487	5634.05	
11181	0.0315883	-0.00893535	0.670365	-0.000631211	-0.00471067	1.3691e-05	-578130	684317	541103	
11241	0.0346664	-0.0187077	0.66679	0.000363114	-0.00178252	1.82692e-10	-5636.91	-138723	113339	
11270	0.0355521	-0.0171478	0.666687	0.000361761	-0.00181582	2.72016e-05	15249.2	-54882.5	-18580.6	
11330	0.0258094	-0.0308698	0.668973	0.000325203	-0.00159641	1.0062e-10	-267177	-218592	88146.9	
11360	0.0263638	-0.0346413	0.669602	0.000124821	-0.00176035	6.61103e-05	71236.8	-484575	80865.1	
11390	0.0269583	-0.030886	0.67013	0.000141917	-0.00187665	8.55179e-05	77007	486508	68386	
11420	0.0260436	-0.0320562	0.670624	0.000183501	-0.00161393	0.000122446	-118908	-152141	64189.1	
11450	0.0235519	-0.0279467	0.667425	0.000144262	-0.00166414	0.000143629	-326039	537737	-418555	
11480	0.0252755	-0.028957	0.667864	2.68875e-05	-0.00147055	-7.051e-06	226671	-132873	57689.4	
11510	0.0255014	-0.0292648	0.66701	5.40881e-05	-0.0014865	-1.28269e-07	29910.8	-40748.5	-113062	
11540	0.0247324	-0.029055	0.667812	6.84453e-05	-0.00150606	-5.43982e-05	-102134	27868.7	106453	
11571	0.0247324	-0.029055	0.667812	-7.5563e-05	-0.00146676	9.57007e-05	-102134	27868.7	106453	
11600	0.024157	-0.0276055	0.666607	-0.000161355	-0.00144335	0.000185121	-77047.8	194103	-161349	
11630	0.024157	-0.0276055	0.666607	-0.000295418	-0.00110561	-9.56266e-05	-77047.8	194103	-161349	
11660	0.024157	-0.0276055	0.666607	-0.000498825	-0.000593181	-0.000521589	-77047.8	194103	-161349	
11691	0.0243912	-0.0278196	0.668245	-0.000545053	-0.000476719	-0.000618399	31907.8	-29170.1	223098	
11751	0.0272876	-0.0312851	0.670311	-0.00344839	0.00179105	4.12731e-10	177973	116519	254337	
11780	0.0219889	-0.0254034	0.669478	-0.00331491	0.00187844	0.000190753	-732185	812739	-115030	
11810	0.0213178	-0.0225301	0.669217	-0.00338081	0.00195158	0.0001804	-210360	203634	-44791.8	
11840	0.0213178	-0.0225301	0.669217	-0.00358906	0.00215318	0.000136057	-210360	203634	-44791.8	
11870	0.0230728	-0.0227692	0.672217	-0.00365848	0.00222038	0.000121275	325945	255113	501676	
11900	0.0245424	-0.0209454	0.667107	-0.00355092	0.00230457	0.000286828	207730	257782	-722254	
11930	0.0235356	-0.0248062	0.668166	-0.00345121	0.0024283	-5.98536e-05	-142907	-548002	150187	
11990	0.0230239	-0.0178733	0.674007	0.00176677	-0.00165391	2.0475e-10	73672.7	993426	633007	
12020	0.0245749	-0.0232959	0.675005	0.0018176	-0.000968445	0.000436775	223230	-780458	143721	
12050	0.0229865	-0.024356	0.674576	0.00193145	-0.00136648	0.000510073	-229991	-153498	-62145.2	
12081	0.0191812	-0.0238146	0.671259	0.00172446	-0.00150463	0.000454142	-552624	78619.1	-481723	
12111	0.0191812	-0.0238146	0.671259	0.000729735	-0.00136311	-0.00041296	-552624	78619.1	-481723	
12140	0.0269063	-0.0343053	0.670532	0.000580526	-0.00134189	-0.000543025	1.13683e+06	-1.54382e+06	-107060	
12170	0.0451318	-0.0170481	0.668482	0.00122852	-0.00222186	-0.000604049	2.69094e+06	2.54797e+06	-302625	
12200	0.0403637	-0.0159409	0.667513	0.00243944	-0.00107528	-0.00074023	-707931	164391	-143815	
12230	0.037987	-0.0178885	0.668146	0.00184478	-0.000937187	-0.000861035	-353876	-289975	94187.2	
12320	0.0360788	-0.0154976	0.667209	-0.00951952	0.00145429	3.34408e-10	-67791.6	-325853	-412255	
12351	0.0372866	-0.0180257	0.667702	-0.00958053	0.00116102	-0.000371029	183354	-383795	74769.5	
12380	0.0370083	-0.017759	0.666948	-0.00947052	0.000930747	-0.000326167	-42521.5	40741.2	-115081	
12411	0.0379434	-0.0137839	0.667149	-0.00949093	0.000950303	-0.000381406	143670	610728	30870.5	
12440	0.0368545	-0.0114231	0.667285	-0.00943059	0.00120681	-0.000368441	-168131	364520	20966.2	
12470	0.0414761	-0.0161528	0.666555	-0.00948607	0.0013271	-0.000361522	717396	-734175	-113390	
12500	0.0434352	-0.0179062	0.666724	-0.00896954	0.000798495	-0.000443163	304936	-272923	26419.1	
12530	0.0391637	-0.0166183	0.668482	-0.00878658	0.000634741	-0.000427312	-668496	201556	275143	
12560	0.0391637	-0.0166183	0.668482	-0.00978933	0.000937075	-1.45964e-05	-668496	201556	275143	
12590	0.0365204	-0.01308	0.667303	-0.0101503	0.00104591	0.000133981	-417790	559248	-186459	
12621	0.0354424	-0.0209482	0.667642	-0.0102882	0.00123047	7.24497e-05	-171381	-1.25094e+06	53941.2	
12650	0.0378519	-0.0208965	0.66818	-0.0103447	0.000817657	9.02503e-05	384896	8263.44	85909.2	
12681	0.0335644	-0.0140838	0.668247	-0.0102408	0.000819888	0.000113446	-688480	1.09397e+06	10790.1	
12710	0.0364549	-0.0158703	0.668184	-0.0106333	0.00144345	0.000119596	465549	-287724	-10170	
12740	0.0382932	-0.0227052	0.666807	-0.0104657	0.00133987	0.000115935	297807	-1.10728e+06	-223025	
12770	0.0181551	-0.029396	0.669077	-0.0103674	0.000974467	4.23367e-05	-3.27832e+06	-1.0892e+06	369539	
12801	0.0210814	-0.0266614	0.6687	-0.0110558	0.000745735	0.00011994	479007	447621	-61763	
12830	0.0244735	-0.0316096	0.667536	-0.0107828	0.00100088	8.4735e-05	556714	-812113	-191009	
12860	0.0213152	-0.026788	0.66804	-0.0106325	0.000781608	3.31625e-05	-521591	796273	83193.8	
12891	0.0183906	-0.016033	0.668217	-0.0108672	0.00113993	7.05997e-05	-484876	1.78309e+06	29298.4	
12920	0.0247248	-0.0233701	0.669336	-0.0111436	0.00215629	8.72997e-05	1.05425e+06	-1.22116e+06	186286	
12980	0.0463805	-0.0103828	0.669973	-0.000980437	0.00160629	2.20016e-10	3.63058e+06	2.17732e+06	106821	
13040	0.037085	-0.0140264	0.666224	0.00142448	-0.00273078	2.58424e-10	-541023	416263	-121351	
13070	0.0357235	-0.0156229	0.666943	0.000986251	-0.00239361	-9.82943e-05	-231631	-271605	122273	
13101	0.0357235	-0.0156229	0.666943	0.000583213	-0.0028662	0.000114461	-231631	-271605	122273	
13130	0.0357235	-0.0156229	0.666943	-2.13442e-05	-0.00357509	0.000433595	-231631	-271605	122273	
13160	0.0276427	-0.0264705	0.672895	-0.000195068	-0.00377879	0.0005253	-1.39416e+06	-1.87151e+06	1.02697e+06	
13190	0.025633	-0.0298219	0.669767	-0.000947912	-0.00478941	0.00107986	-348687	-581471	-542686	
13220	0.020637	-0.0164849	0.666935	-0.00102114	-0.00491151	0.000965897	188998	70595	-183259	
13280	0.0371901	-0.0131639	0.665783	0.00112548	-0.00215762	1.03507e-10	-365655	106932	-152208	
13311	0.0385228	-0.0124176	0.666442	0.000982878	-0.00211591	-5.93609e-05	235666	131989	116462	
13370	0.0400689	-0.0144074	0.665846	0.000397689	-0.00292483	4.98592e-10	274810	-353681	-105852	
13400	0.0392481	-0.0200714	0.666534	0.000546086	-0.00311582	-5.71594e-05	-146988	-1.01429e+06	123175	
13431	0.0349891	-0.00869265	0.670075	0.000515219	-0.00332882	-3.12926e-05	-305865	376050	33615.9	
13460	0.0378752	-0.000417803	0.66482	0.000386755	-0.00317088	-1.71739e-05	521796	1.49605e+06	-949999	
13490	0.0378752	-0.000417803	0.66482	0.00107553	-0.00119609	-0.00127117	521796	1.49605e+06	-949999	
13520	0.0377154	0.00464173	0.664038	0.00129468	-0.000567752	-0.00167017	-29142.1	922921	-142720	
13550	0.0333654	-6.03439e-05	0.670406	0.00127545	4.13755e-05	-0.00176437	-796091	-860512	1.16551e+06	
13580	0.0333654	-6.03439e-05	0.670406	3.35442e-05	-0.00130102	5.38255e-05	-796091	-860512	1.16551e+06	
13610	0.0333654	-6.03439e-05	0.670406	-0.00192484	-0.00341788	0.00292098	-796091	-860512	1.16551e+06	
13641	0.0260713	-0.0314368	0.66931	-0.00216367	-0.00367604	0.00327063	-318131	-1.54922e+06	489411	
13670	0.0293407	-0.0281375	0.667732	-0.00237363	-0.00469852	0.00359364	608986	614550	-293789	
13700	0.0293407	-0.0281375	0.667732	-0.00142362	-0.00373983	0.00313533	608986	614550	-293789	
13730	0.0275213	-0.0334122	0.666889	-0.00127746	-0.00359233	0.00306482	-102592	-986554	-45909.7	
13790	0.0278419	-0.0298825	0.667698	0.00108197	0.0013226	2.61088e-10	60638.1	667538	153065	
13850	0.0237226	-0.0239768	0.666149	0.00276288	-0.0034294	7.19146e-11	-423532	1.5754e+06	-192882	
13880	0.0237226	-0.0239768	0.666149	0.00221652	-0.00139713	-0.000248817	-423532	1.5754e+06	-192882	
13940	0.0240523	-0.0260237	0.667228	0.00209608	-0.00312195	9.52939e-11	665715	-1.31795e+06	-657288	
13971	0.024428	-0.035502	0.669176	0.00263531	-0.00418949	-0.000532403	73056.6	-1.84292e+06	378814	
14000	0.024428	-0.035502	0.669176	0.00275805	-0.0072856	0.000104005	73056.6	-1.84292e+06	378814	
14060	0.0253227	-0.0308858	0.667584	0.0016076	-0.001055	3.42089e-10	686520	-623957	-548136	
14090	0.0253227	-0.0308858	0.667584	0.00298751	-0.00230915	-0.00110175	686520	-623957	-548136	
14120	0.0255675	-0.0313529	0.668448	0.00333763	-0.00262737	-0.0013813	48700.6	-92896.5	171824	
14150	0.0267845	-0.026396	0.672992	0.00334056	-0.00263295	-0.00137099	440070	267537	823487	
14180	0.0259304	-0.0272526	0.672129	0.00353859	-0.00251255	-0.00100042	-171372	-171890	-173161	
14210	0.0250642	-0.0320676	0.669272	0.00347175	-0.00257959	-0.00106796	-174586	-970486	-575799	
14240	0.0260132	-0.0297517	0.669837	0.00338271	-0.00307454	-0.00136161	191963	468490	114303	
14270	0.0258252	-0.0157472	0.668286	0.00354972	-0.00266695	-0.00126217	-38115.6	2.84021e+06	-314604	
14300	0.0228237	-0.0118889	0.671169	0.00354286	-0.00215571	-0.0013188	-613267	788311	589031	
14331	0.023775	-0.0137235	0.671426	0.0031933	-0.00170638	-0.000983052	194861	-375781	52689.5	
14360	0.0254425	-0.0195257	0.671586	0.00332191	-0.00195439	-0.000948277	342789	-1.19281e+06	32873.6	
14390	0.0261473	-0.0276756	0.672706	0.00359957	-0.00292057	-0.00092165	145403	-1.68129e+06	231120	
14420	0.0243794	-0.0250949	0.672006	0.00362574	-0.0032232	-0.000880048	-367295	536167	-145595	
14450	0.0262989	-0.0261144	0.672751	0.0034274	-0.00293367	-0.000958669	399791	-212336	155348	
14481	0.0280423	-0.0278974	0.672309	0.00358332	-0.00301648	-0.000898084	364928	-373239	-92522	
14510	0.0280423	-0.0278974	0.672309	0.00404313	-0.00348676	-0.00101466	364928	-373239	-92522	
14541	0.0375832	-0.00873482	0.669984	0.00437156	-0.00382268	-0.00109793	2.00902e+06	4.03506e+06	-489760	
14570	0.0375832	-0.00873482	0.669984	0.00792752	0.00331938	-0.00196481	2.00902e+06	4.03506e+06	-489760	
14601	0.0355522	-0.00416517	0.668347	0.00913293	0.00574041	-0.00225866	-431784	971533	-347933	
14630	0.039473	0.000705692	0.664521	0.00900339	0.00603187	-0.00236304	801388	1.26468e+06	-1.25845e+06	
14661	0.0354045	-0.00708829	0.669475	0.00902744	0.00606981	-0.00240079	-248889	554546	-193714	
14690	0.0354045	-0.00708829	0.669475	0.00879597	0.00658554	-0.00258095	-248889	554546	-193714	
14721	0.0344331	-0.0141748	0.669923	0.00868397	0.00683508	-0.00266812	-210077	-1.53257e+06	96809.5	
14750	0.0365996	-0.0120963	0.666214	0.00855162	0.00586957	-0.00260713	470012	450907	-804551	
14810	0.0356822	-0.0139147	0.666029	-4.05664e-05	0.00274714	1.67725e-10	-263198	64295.3	-114916	
14840	0.0354059	-0.0165511	0.664914	-4.84623e-05	0.00274907	-3.44733e-06	-60851.7	-580524	-245627	
14870	0.0376131	-0.00820268	0.669056	-5.75901e-05	0.00266199	-4.02913e-05	487720	1.84474e+06	915356	
14930	0.0400326	-0.0185617	0.666822	0.000612427	-0.00152238	2.65752e-10	536736	-2.29795e+06	-495666	
14960	0.0372076	-0.0178722	0.666313	0.00078955	-0.0022807	-0.00016357	-24703.8	-737174	167572	
14990	0.0372076	-0.0178722	0.666313	0.000759164	-0.00318742	4.25439e-05	-24703.8	-737174	167572	
15021	0.0247242	-0.0357519	0.668972	0.000736931	-0.00385088	0.000193359	-2.80538e+06	-4.01812e+06	597698	
15050	0.0247242	-0.0357519	0.668972	-0.0042286	-0.010963	0.00125128	-2.80538e+06	-4.01812e+06	597698	
15081	0.0262688	-0.0337182	0.67116	-0.00591183	-0.0133738	0.0016099	350359	461330	496123	
15110	0.0252749	-0.0219357	0.668787	-0.00574366	-0.0131524	0.00184804	-226452	2.68438e+06	-540438	
15140	0.0250892	-0.0268743	0.671603	-0.00581838	-0.0122666	0.0016697	214717	-1.15936e+06	793494	
15170	0.0240482	-0.0227597	0.669157	-0.00572176	-0.0127883	0.00202677	-239091	945006	-561735	
15200	0.025561	-0.0250629	0.67003	-0.00577197	-0.0125898	0.0019088	349194	-531635	201614	
15230	0.0243467	-0.0276269	0.671259	-0.00566721	-0.0127493	0.00196929	-281305	-593953	284593	
15260	0.0259642	-0.0264504	0.67226	-0.00573473	-0.0128919	0.00203759	376267	273695	232896	
15320	0.0225378	-0.0247237	0.672077	-0.00265082	-0.00450871	2.39229e-10	-800191	403253	-42695.4	
15380	0.0234837	-0.0268014	0.673573	-0.00193893	-0.00258902	1.88692e-10	94056.2	69287.3	318865	
15411	0.0222543	-0.0248371	0.67333	-0.00188814	-0.0025516	0.000172187	-291318	465444	-57562.2	
15440	0.0229084	-0.0269464	0.672544	-0.00208915	-0.00223044	0.000132469	155468	-501352	-186662	
15471	0.0236484	-0.0244578	0.671212	-0.00202385	-0.00244101	5.40713e-05	176810	594558	-318324	
15500	0.0210417	-0.0266798	0.670917	-0.00188594	-0.00197726	-0.000194221	-624149	-532038	-70735.7	
15530	0.0210417	-0.0266798	0.670917	-0.00293451	-0.00287108	-0.000313057	-624149	-532038	-70735.7	
15560	0.0210417	-0.0266798	0.670917	-0.00454481	-0.00424374	-0.000495555	-624149	-532038	-70735.7	
15590	0.022147	-0.0262216	0.671177	-0.00484441	-0.00449912	-0.000529508	268079	111136	63159.3	
15620	0.0246269	-0.0322609	0.670816	-0.00477202	-0.00446911	-0.000512455	814293	-1.12708e+06	-100353	
15650	0.024548	-0.0270618	0.668372	-0.00425902	-0.00517917	-0.000575678	-19262.7	1.26996e+06	-597071	
15710	0.0226037	-0.0215814	0.672937	-0.00369728	0.00159367	1.02911e-10	-234913	-346521	460627	
15740	0.0224139	-0.0186003	0.671279	-0.00373252	0.00154169	6.90942e-05	-46991.7	738088	-410478	
15770	0.0224139	-0.0186003	0.671279	-0.00378186	0.00231668	-0.000361908	-46991.7	738088	-410478	
15800	0.0223261	-0.0150734	0.670297	-0.00380019	0.00260453	-0.000521995	-21884.6	879009	-244647	
15830	0.0237551	-0.0224917	0.671199	-0.00381726	0.00329016	-0.000712819	356911	-1.85283e+06	225181	
15860	0.0242698	-0.0211275	0.671051	-0.00362452	0.00228963	-0.000591221	129185	342363	-37093.4	
15891	0.0233808	-0.017421	0.669471	-0.00355864	0.00246424	-0.000610139	-224019	933990	-398073	
15920	0.024553	-0.0266959	0.667455	-0.00374682	0.00324879	-0.000944521	296039	-2.34243e+06	-509184	
15950	0.0240167	-0.0269005	0.668368	-0.00370241	0.00289742	-0.0010209	-136341	-52029.9	232118	
15981	0.0241048	-0.027796	0.668823	-0.00377603	0.00286933	-0.000895555	22461.7	-228192	115989	
16010	0.0241048	-0.027796	0.668823	-0.00374436	0.00254758	-0.00073201	22461.7	-228192	115989	
16040	0.0241048	-0.027796	0.668823	-0.00369248	0.00202045	-0.000464076	22461.7	-228192	115989	
16071	0.0236654	-0.0186764	0.672566	-0.00367293	0.00182193	-0.000363166	-113098	2.34689e+06	963122	
16100	0.0229772	-0.0181843	0.671232	-0.00370686	0.00252599	-7.42297e-05	-178146	127391	-345291	
16160	0.0222843	-0.0220131	0.671482	0.00114487	-0.00369171	1.60648e-10	-90684.1	-599364	-151997	
16190	0.0234937	-0.0211114	0.670883	0.0011095	-0.00392547	-5.92787e-05	316499	235950	-156665	
16220	0.0229501	-0.0195789	0.672134	0.00122344	-0.00384053	-0.000115678	-142815	402590	328465	
16250	0.0226124	-0.0253437	0.666376	0.00112062	-0.00355066	0.000120817	-88895.9	-1.51776e+06	-1.51587e+06	
16280	0.0203046	-0.0194435	0.670241	0.00106995	-0.00441578	-0.00074323	-610232	1.56014e+06	1.02185e+06	
16400	0.0202609	-0.024722	0.667956	0.00226147	-0.00339652	4.88555e-10	-147630	-930207	-426339	
16460	0.0223065	-0.0221838	0.670346	0.000172502	-0.00018631	3.484e-10	-856964	1.46407e+06	671568	
16490	0.0256903	-0.0291764	0.667812	-0.000418803	0.000823897	0.000463382	917576	-1.89614e+06	-687286	
16520	0.0256903	-0.0291764	0.667812	0.00104014	-0.00219097	-0.000629403	917576	-1.89614e+06	-687286	
16580	0.023411	-0.0343529	0.667511	-1.71163e-05	0.000101588	1.42561e-10	-600741	-506706	-210169	
16640	0.0254423	-0.0254324	0.668793	0.00081114	-0.00206256	1.04888e-10	-36710.5	-545444	12229.9	
16670	0.0248883	-0.0223287	0.669121	0.000795721	-0.00229164	5.13665e-06	-153683	861032	90765.3	
16700	0.0256097	-0.0299448	0.67006	0.000708122	-0.00180085	5.68729e-05	200717	-2.11922e+06	261258	
16760	0.0272898	-0.0243906	0.669284	0.00178427	-0.00107304	1.11429e-10	420531	-1.60708e+06	71412.2	
16790	0.0272898	-0.0243906	0.669284	0.00232675	-0.00314617	9.21219e-05	420531	-1.60708e+06	71412.2	
16820	0.0258383	-0.0200677	0.667811	0.00261692	-0.00425506	0.000141396	-409520	1.21965e+06	-415572	
16880	0.0260973	-0.0193592	0.668219	0.00128379	-0.000819731	9.04446e-11	71318.9	829450	87729.2	
16910	0.0260973	-0.0193592	0.668219	0.00136723	0.000150725	0.000102643	71318.9	829450	87729.2	
16940	0.0267446	-0.0230869	0.667586	0.00139077	0.000424444	0.000131594	185512	-1.06833e+06	-181231	
16970	0.0264093	-0.0252192	0.667937	0.00149094	-0.000152457	3.37291e-05	-96365.1	-612771	100858	
17000	0.0264093	-0.0252192	0.667937	0.00135218	-0.00103485	0.000178965	-96365.1	-612771	100858	
17030	0.0242725	-0.0225842	0.668743	0.00134061	-0.00110838	0.000191068	-619404	763840	233678	
17060	0.0262997	-0.0253639	0.669187	0.00102472	-0.000718821	0.000310243	588813	-807384	128982	
17090	0.0252485	-0.0214438	0.669035	0.00153698	-0.00142124	0.000422458	-305975	1.14104e+06	-44458.3	
17120	0.0262757	-0.0234154	0.6686	0.00134422	-0.000702392	0.000394449	300321	-576439	-127081	
17180	0.0341989	-0.0124562	0.664843	-0.00360145	0.00300992	1.16205e-10	-85230.2	-1.27201e+06	-30925.1	
17240	0.0351412	-0.0167664	0.665971	-0.0012927	0.0015579	9.12615e-11	279020	-1.27632e+06	333899	
17300	0.0366561	-0.0142701	0.665456	-0.00121115	0.00145963	2.16875e-10	41135.1	-719533	-197551	
17330	0.0269438	-0.0284045	0.668262	-0.00119018	0.00109266	-0.000100751	-2.91116e+06	-4.23663e+06	841093	
17361	0.0253283	-0.0270252	0.6682	-0.00284954	-0.00132221	0.000378672	-485842	414818	-18514	
17390	0.0239479	-0.025731	0.666591	-0.00306817	-0.00113555	0.000370341	-416748	390684	-485700	
17420	0.0238367	-0.0249555	0.666603	-0.00340573	-0.000819091	-2.30761e-05	-33637.2	234623	3620.36	
17450	0.0235065	-0.0209624	0.668916	-0.00341885	-0.000727588	-2.16641e-05	-100377	1.21409e+06	703233	
17480	0.0235065	-0.0209624	0.668916	-0.00354834	0.000838588	0.000885506	-100377	1.21409e+06	703233	
17511	0.0227784	-0.0184569	0.671536	-0.00358749	0.00131208	0.00115977	-222939	767119	802176	
17571	0.0222094	-0.0203008	0.671361	0.000641951	0.0018589	2.21153e-10	-155594	235486	9232.99	
17631	0.0259614	-0.0217731	0.670861	0.000604474	0.00175039	5.62262e-11	1.11264e+06	634631	-811701	
17660	0.0259614	-0.0217731	0.670861	0.00190626	0.00249291	-0.00094969	1.11264e+06	634631	-811701	
17690	0.021494	-0.0182555	0.669911	0.00213991	0.00262618	-0.00112015	-1.39691e+06	1.09992e+06	-297053	
17720	0.0246218	-0.0224697	0.669217	0.00134368	0.00325313	-0.00128947	980032	-1.32042e+06	-217571	
17750	0.0258162	-0.0245413	0.669687	0.00169649	0.00277778	-0.00136779	375793	-651805	147921	
17781	0.0218249	-0.0212622	0.670079	0.00189942	0.00242581	-0.00128792	-1.25935e+06	1.03464e+06	123551	
17810	0.0315185	-0.00381186	0.668057	0.00121937	0.00298451	-0.0012212	3.06855e+06	5.524e+06	-640117	
17841	0.0340127	-0.00813473	0.669215	0.00324461	0.00663035	-0.00164368	791954	-1.37258e+06	367805	
17870	0.0332851	-0.0143286	0.669145	0.00331589	0.00650681	-0.00161057	-232271	-1.97728e+06	-22387.1	
17900	0.0381789	-0.0205108	0.66657	0.00326711	0.00609158	-0.00161527	1.56681e+06	-1.97929e+06	-824266	
17960	0.0377816	-0.0258081	0.66713	0.00280943	-0.0023585	1.77246e-10	-127714	-1.70279e+06	179803	
17990	0.0377816	-0.0258081	0.66713	0.00257571	-0.00547461	0.00032904	-127714	-1.70279e+06	179803	
18080	0.0429679	-0.0104051	0.660435	0.00419605	-0.00522274	2.48728e-10	1.74424e+06	2.20916e+06	-1.97892e+06	
18110	0.0385193	-0.0140048	0.666833	0.00492863	-0.00429489	-0.000831146	-1.45676e+06	-1.17879e+06	2.09503e+06	
18140	0.0266253	-0.0288724	0.668453	0.0045353	-0.00461317	-0.000265487	-4.08261e+06	-3.53362e+06	492285	
18171	0.0278004	-0.028129	0.669389	0.00257565	-0.0063093	-2.91908e-05	387321	245047	308549	
18200	0.0279304	-0.025531	0.668823	0.00258727	-0.00630195	-1.99343e-05	43054.9	860475	-187403	
18260	0.0281649	-0.0256302	0.66949	-0.000945749	-0.00167098	3.87011e-10	77903.9	-32959.6	221427	
18290	0.0290969	-0.0320493	0.668041	-0.000887321	-0.0016957	0.000166071	310929	-2.14148e+06	-483447	
18380	0.0384334	-0.0128625	0.665922	0.00235733	-0.00243347	2.90142e-10	-391963	-336944	-10879.5	
18410	0.0333763	-0.00584841	0.664623	0.00223974	-0.00253456	-3.26355e-06	-1.71213e+06	2.37468e+06	-439745	
18441	0.0349053	-0.00301463	0.668559	0.00100701	-0.000824787	-0.00031988	518611	961177	1.33508e+06	
18470	0.0349053	-0.00301463	0.668559	0.0018316	0.000703484	0.0018029	518611	961177	1.33508e+06	
18531	0.0376893	-0.0114486	0.664569	0.0024461	-0.00215058	7.63272e-11	-37458.6	-663478	-52753.5	
18590	0.0336282	-0.00952606	0.665622	0.00255862	-0.00420471	1.12439e-10	-1.07476e+06	302590	286866	
18710	0.0401225	-0.0201585	0.667038	0.000733628	-0.00282047	8.56292e-11	2.32238e+06	-4.60714e+06	502465	
18741	0.0259415	-0.0400873	0.670079	0.00122133	-0.00378797	0.000105518	-4.50152e+06	-8.3148e+06	685114	
18770	0.0259415	-0.0400873	0.670079	-0.00364032	-0.012768	0.000845441	-4.50152e+06	-8.3148e+06	685114	
18800	0.0259415	-0.0400873	0.670079	-0.0125533	-0.0292313	0.00220197	-4.50152e+06	-8.3148e+06	685114	
18860	0.0265308	-0.0300876	0.667416	0.00259699	-0.00166189	6.75388e-11	272573	-259954	535655	
18920	0.0279771	-0.0378448	0.667866	0.00250745	-0.00160459	2.96846e-10	515235	-2.76363e+06	160275	
18951	0.0383654	-0.0159519	0.659634	0.00297116	-0.00409186	0.000144248	3.71906e+06	7.83775e+06	-2.94706e+06	
18980	0.0392865	-0.0128299	0.659862	0.00576046	0.00178645	-0.00206605	330958	1.12169e+06	82131.7	
19010	0.0392865	-0.0128299	0.659862	0.00630654	0.00363724	-0.00193053	330958	1.12169e+06	82131.7	
19070	0.0224093	-0.0296585	0.673973	0.000223399	0.00485435	9.29159e-11	-7.24266e+06	-7.49756e+06	5.27783e+06	
19101	0.0247282	-0.0323277	0.669308	-0.00607772	-0.00166853	0.00459171	843478	-970889	-1.69678e+06	
19130	0.0247282	-0.0323277	0.669308	-0.00461007	-0.00335788	0.00163931	843478	-970889	-1.69678e+06	
19160	0.0199091	-0.0304736	0.671792	-0.00433172	-0.00367827	0.00107937	-367620	925765	-155776	
19190	0.0264852	-0.0325104	0.669445	-0.00458538	-0.00303949	0.000971888	2.41588e+06	-748300	-862236	
19221	0.0257568	-0.0283585	0.668851	-0.0032808	-0.00344357	0.00050628	-268591	1.53105e+06	-218954	
19250	0.0215814	-0.0200908	0.673708	-0.00336138	-0.00298426	0.000440594	-144485	2.54697e+06	727674	
19281	0.025906	-0.0340672	0.668338	-0.00346107	-0.00122685	0.000942689	1.60386e+06	-5.18344e+06	-1.99142e+06	
19340	0.0261635	-0.0284864	0.668919	0.0032122	-0.00197482	1.87306e-10	95992.1	2.08052e+06	216564	
19370	0.0257748	-0.0337913	0.668533	0.00328708	-0.000352012	0.00016892	-145449	-1.98503e+06	-144694	
19401	0.0259653	-0.0354425	0.668537	0.00318235	-0.00178123	6.47402e-05	71540.6	-619977	1608.54	
19431	0.0259653	-0.0354425	0.668537	0.0032961	-0.002767	6.72977e-05	71540.6	-619977	1608.54	
19491	0.0223726	-0.0277963	0.673603	0.00197722	0.000417527	1.7738e-10	-1.36053e+06	2.89553e+06	1.91869e+06	
19520	0.025402	-0.0307055	0.668684	0.00120172	0.00206798	0.00109365	1.15205e+06	-1.10631e+06	-1.87097e+06	
19550	0.025402	-0.0307055	0.668684	0.00289524	0.000441703	-0.00165667	1.15205e+06	-1.10631e+06	-1.87097e+06	
19580	0.0250676	-0.0308432	0.667212	0.00334454	1.02417e-05	-0.00238634	-285733	-2.99264e+06	-19879	
19610	0.0269877	-0.0321511	0.667848	0.00313024	-0.00223424	-0.00240125	736510	-501668	244059	
19640	0.0269877	-0.0321511	0.667848	0.00434548	-0.00306199	-0.00199855	736510	-501668	244059	
19700	0.0264275	-0.0347884	0.6685	0.00145115	-0.00124929	1.48539e-10	177107	-724787	239717	
19730	0.0264321	-0.0340538	0.668258	0.00152553	-0.00155371	0.000100681	1798.81	285549	-94162.5	
19790	0.0278	-0.0295765	0.66873	0.000837307	0.000346286	1.34164e-10	85405.9	589453	18054.9	
19820	0.0262789	-0.0264034	0.66708	0.000909048	0.000841427	1.51663e-05	-595824	1.24296e+06	-646079	
19850	0.0271084	-0.0298541	0.668017	0.000712426	0.0012516	-0.00019804	326466	-1.35813e+06	368425	
19880	0.0277378	-0.0320536	0.667066	0.000800572	0.00088491	-9.85652e-05	248535	-868487	-375535	
19911	0.0278256	-0.0305011	0.666822	0.000830396	0.000780692	-0.000143629	-518186	847224	208987	
19940	0.0430477	-0.0105523	0.664005	0.000659395	0.00106028	-7.46636e-05	6.04567e+06	7.92297e+06	-1.11871e+06	
19971	0.0430477	-0.0105523	0.664005	0.00827694	0.0110432	-0.00148424	6.04567e+06	7.92297e+06	-1.11871e+06	
20000	0.0359866	-0.0126321	0.670859	0.0104534	0.0138955	-0.00188697	-2.82103e+06	-830936	2.73832e+06	
20031	0.0386611	-0.0168418	0.666801	0.00825298	0.0132474	0.000248916	1.07033e+06	-1.68472e+06	-1.62388e+06	
20060	0.0372625	-0.0147186	0.66547	0.00889517	0.0122365	-0.000725414	-561659	852685	-534719	
20120	0.0395879	-0.0198706	0.666548	-0.0019138	0.0017506	1.49368e-10	161124	-659148	1.11559e+06	
20150	0.039737	-0.0161036	0.667334	-0.00188963	0.00165173	0.000167339	60507.5	1.52871e+06	319217	
20210	0.0376996	-0.0143074	0.666574	-0.000661595	0.00347956	9.8762e-11	-471790	2.51500e+06	-349630	
20240	0.0376996	-0.0143074	0.666574	-0.00112867	0.00596941	-0.000346133	-471790	2.51500e+06	-349630	
20270	0.0327368	-0.00855274	0.66922	-0.00129851	0.00687481	-0.000472	-2.03668e+06	2.36165e+06	1.08614e+06	
20301	0.0339195	-0.0143239	0.669292	-0.00264272	0.0084335	0.000244854	486375	-2.37334e+06	29682.1	
20330	0.0320238	-0.0112297	0.669544	-0.00243845	0.0074367	0.00025732	-782434	1.27713e+06	103748	
20360	0.0311455	-0.00120314	0.667654	-0.00262623	0.00774321	0.00028222	-363780	4.15303e+06	-782683	
20420	0.0382341	-0.00977723	0.670022	0.00126357	-0.000994267	3.32511e-10	2.94535e+06	-3.5626e+06	983778	
20451	0.0382341	-0.00977723	0.670022	0.00718372	-0.00815509	0.00197739	2.94535e+06	-3.5626e+06	983778	
20480	0.0382341	-0.00977723	0.670022	0.0156663	-0.0184154	0.00481068	2.94535e+06	-3.5626e+06	983778	
20540	0.03924	-0.0213759	0.665793	0.00158448	0.000143628	1.56171e-10	647770	-3.8374e+06	658441	
20571	0.0376124	-0.0147652	0.666338	0.00183711	-0.00135296	0.000256792	-687881	2.79389e+06	230338	
20631	0.0369526	-0.0150313	0.666601	0.00107425	-0.00147647	2.13025e-10	-1.07992e+06	-348754	439577	
20660	0.038191	-0.0162762	0.667622	0.000717875	-0.00159156	0.000145061	528008	-530816	435299	
20690	0.038191	-0.0162762	0.667622	0.00136733	-0.00224446	0.000680479	528008	-530816	435299	
20780	0.0348685	-0.0109938	0.671717	0.000127873	-0.00302333	1.19675e-10	-1.06758e+06	2.94862e+06	1.89056e+06	
20841	0.0334374	-0.00512555	0.670196	0.00204256	-0.00613092	2.205e-10	37844.7	42859	329571	
20870	0.0341985	-0.00712254	0.670183	0.00205618	-0.00611549	0.000118646	331109	-868802	-5571.19	
20900	0.0342397	-0.0102283	0.668554	0.00207605	-0.00616761	0.000118312	17985.2	-1.35639e+06	-711437	
20930	0.0380545	-0.0128815	0.66429	0.00208414	-0.00677799	-0.000201835	1.66873e+06	-1.16058e+06	-1.86491e+06	
20960	0.0380545	-0.0128815	0.66429	0.00433693	-0.00834477	-0.00271947	1.66873e+06	-1.16058e+06	-1.86491e+06	
20990	0.0380545	-0.0128815	0.66429	0.00809157	-0.0109561	-0.00691552	1.66873e+06	-1.16058e+06	-1.86491e+06	
21080	0.0383167	-0.0132206	0.665786	0.00110983	-0.00132955	1.24592e-10	-1.13889e+06	-1.56047e+06	1.8591e+06	
21110	0.0389156	-0.0149729	0.664361	0.000836502	-0.00170406	0.000446184	266703	-780279	-634531	
21140	0.0426083	-0.00360193	0.660904	0.00089251	-0.00186792	0.000312932	1.64914e+06	5.0783e+06	-1.54411e+06	
21260	0.0265157	-0.0248902	0.666596	0.00223274	-0.00298177	1.84094e-10	114151	-464397	-601134	
21321	0.0264688	-0.0287561	0.667135	0.00213425	-0.00285024	2.67877e-10	-21217.4	-1.75032e+06	244162	
21380	0.0415832	-0.00574238	0.66175	0.00206022	-0.00185567	2.49042e-10	7.43306e+06	6.55827e+06	-3.83538e+06	
21410	0.0379052	-0.0147756	0.664733	0.00763502	0.00306303	-0.00287654	-1.68202e+06	-4.13104e+06	1.36423e+06	
21440	0.0373611	-0.0122945	0.66466	0.00677719	0.000956199	-0.00218078	-249698	1.13868e+06	-33681.2	
21470	0.0373611	-0.0122945	0.66466	0.00642511	0.00256173	-0.00222827	-249698	1.13868e+06	-33681.2	
21500	0.0373611	-0.0122945	0.66466	0.00584831	0.00519207	-0.00230607	-249698	1.13868e+06	-33681.2	
21531	0.0275787	-0.0259395	0.671121	0.00565355	0.00608024	-0.00233234	-4.52401e+06	-6.31034e+06	2.98773e+06	
21560	0.0244523	-0.0304912	0.666503	0.00253198	0.0017261	-0.000270808	-1.45019e+06	-2.11128e+06	-2.14166e+06	
21620	0.0292996	-0.034601	0.668132	0.000822694	0.00171736	2.39952e-10	2.8959e+06	-4.04688e+06	-1.14636e+06	
21651	0.0240159	-0.0272322	0.670724	0.00160459	0.0006247	-0.000309517	-60309.3	1.2463e+06	548141	
21740	0.0264543	-0.0298524	0.66785	0.00185409	-0.00257153	3.40585e-10	1.28711e+06	1.15769e+06	-1.86114e+06	
21770	0.0264543	-0.0298524	0.66785	0.00475009	3.32642e-05	-0.00418756	1.28711e+06	1.15769e+06	-1.86114e+06	
21800	0.0234582	-0.0251491	0.670671	0.00559958	0.000797337	-0.00541592	-1.42097e+06	2.23072e+06	1.33816e+06	
21830	0.0234582	-0.0251491	0.670671	0.00338286	0.00427725	-0.00332839	-1.42097e+06	2.23072e+06	1.33816e+06	
21861	0.021963	-0.0205138	0.670657	0.00257291	0.00554876	-0.00256564	-713312	2.21138e+06	-7131.16	
21920	0.0244793	-0.024857	0.672007	-0.00227791	-0.000419386	1.83955e-10	-64406.2	-2.40878e+06	-24870.9	
21950	0.0244793	-0.024857	0.672007	-0.00236293	-0.00359898	-3.28294e-05	-64406.2	-2.40878e+06	-24870.9	
21980	0.0255223	-0.0269106	0.671742	-0.00238998	-0.00461067	-4.32752e-05	503233	-990901	-127576	
22010	0.0255223	-0.0269106	0.671742	-0.00172571	-0.00591866	-0.000211675	503233	-990901	-127576	
22040	0.0255223	-0.0269106	0.671742	-0.000608534	-0.00811846	-0.000494893	503233	-990901	-127576	
22070	0.0255223	-0.0269106	0.671742	0.000961553	-0.0112101	-0.000892928	503233	-990901	-127576	
22100	0.0274684	-0.0261185	0.66873	0.00136917	-0.0120127	-0.000996265	948191	385928	-1.4677e+06	
22190	0.0282418	-0.0351039	0.670298	-0.00247786	-0.000273673	3.95225e-10	-25503.6	-3.80988e+06	817646	
22221	0.025292	-0.034711	0.669608	-0.00248398	-0.00118805	0.000196235	-1.13496e+06	-180843	51214.7	
22250	0.025292	-0.034711	0.669608	-0.00374379	-0.00138878	0.000253084	-1.13496e+06	-180843	51214.7	
22280	0.025292	-0.034711	0.669608	-0.00602505	-0.00175227	0.000356025	-1.13496e+06	-180843	51214.7	
22400	0.0280584	-0.0339505	0.66925	-0.00787901	-0.00144434	3.40482e-10	-7.40657e+06	-9.13884e+06	4.78685e+06	
22431	0.0276656	-0.0339521	0.669314	-0.0132117	-0.0080243	0.00344653	-197223	-812.442	32287.3	
22460	0.0276656	-0.0339521	0.669314	-0.0135253	-0.00802559	0.00349787	-197223	-812.442	32287.3	
22490	0.0276656	-0.0339521	0.669314	-0.0140164	-0.00802762	0.00357826	-197223	-812.442	32287.3	
22520	0.0270201	-0.0321446	0.66945	-0.0141643	-0.00802823	0.00360248	-326649	914643	68570.2	
22550	0.0270201	-0.0321446	0.66945	-0.0147033	-0.00651907	0.00371562	-326649	914643	68570.2	
22581	0.0260071	-0.0294788	0.669549	-0.0149483	-0.00583308	0.00376705	-515386	1.35628e+06	50439.4	
22610	0.0260071	-0.0294788	0.669549	-0.0157832	-0.0036359	0.00384876	-515386	1.35628e+06	50439.4	
22670	0.0246729	-0.028641	0.668929	0.00179325	-0.00181807	4.35604e-10	-683015	428906	-317605	
22700	0.0222883	-0.0253483	0.674782	0.00121952	-0.00145779	-0.000266788	-1.22571e+06	1.69251e+06	3.00855e+06	
22730	0.0222883	-0.0253483	0.674782	-0.000913222	0.00148719	0.00496809	-1.22571e+06	1.69251e+06	3.00855e+06	
22760	0.0225844	-0.0286132	0.670179	-0.00179574	0.0027058	0.00713425	153064	-1.68772e+06	-2.37903e+06	
22790	0.0225844	-0.0286132	0.670179	-0.00154777	-2.83065e-05	0.00328022	153064	-1.68772e+06	-2.37903e+06	
22820	0.02334	-0.0275324	0.670866	-0.00146971	-0.000889043	0.00206691	392859	562006	356977	
22850	0.02334	-0.0275324	0.670866	-0.000915776	-9.66143e-05	0.00257025	392859	562006	356977	
22880	0.02334	-0.0275324	0.670866	-8.27095e-06	0.00120162	0.00339486	392859	562006	356977	
22911	0.0268583	-0.0333895	0.667649	0.00023923	0.00155568	0.00361976	1.84344e+06	-3.06882e+06	-1.68539e+06	
22971	0.0277642	-0.0280966	0.666824	0.00162783	-0.00171426	2.62224e-10	476432	2.78364e+06	-433941	
23000	0.0277642	-0.0280966	0.666824	0.00258546	0.00388086	-0.000872222	476432	2.78364e+06	-433941	
23030	0.0277642	-0.0280966	0.666824	0.00397187	0.0119812	-0.00213499	476432	2.78364e+06	-433941	
23090	0.0226399	-0.0218422	0.671202	0.00323741	-0.00374819	4.31379e-10	-2.72494e+06	3.32584e+06	2.32779e+06	
23180	0.033266	-0.0133062	0.663511	0.00289933	-0.00335683	1.38962e-10	4.14008e+06	5.49033e+06	-1.51531e+06	
23210	0.0313844	-0.0132192	0.662268	0.00538338	-6.26308e-05	-0.000909185	-1.0119e+06	46800.6	-668300	
23301	0.0326031	-0.0172622	0.66371	0.000895553	0.000441091	4.90131e-10	422193	417144	19694.6	
23330	0.0335566	-0.00892556	0.664155	0.0012122	0.000753949	1.47714e-05	517876	4.52782e+06	241986	
23360	0.0343032	-0.0142376	0.664381	0.0016006	0.00414982	0.000196261	406536	-2.89254e+06	122801	
23390	0.0345386	-0.0118475	0.664364	0.00184453	0.00241429	0.000269941	128599	1.30538e+06	-9079.37	
23451	0.0341311	-0.0103041	0.664445	0.00075902	0.000373844	2.7421e-10	-223360	845996	44462.6	
23480	0.0341311	-0.0103041	0.664445	0.000303366	0.00209968	9.07041e-05	-223360	845996	44462.6	
23510	0.0349421	-0.0103515	0.667198	0.000135846	0.00273417	0.000124051	447314	-26180.9	1.5185e+06	
23541	0.0345884	-0.0101061	0.666679	0.00027004	0.00272632	0.000579601	-195893	135911	-287621	
23570	0.0374825	-0.0141194	0.663878	0.000146628	0.00281194	0.0003984	1.60496e+06	-2.22558e+06	-1.55323e+06	
23600	0.0358898	-0.00695919	0.668092	0.000579968	0.00221104	-2.09724e-05	-886388	3.98488e+06	2.34488e+06	
23630	0.036386	-0.00747325	0.663652	0.000181094	0.00400424	0.00103422	276686	-286675	-2.47586e+06	
23780	0.0350215	-0.00327844	0.669857	-0.00776044	0.000730808	2.35551e-10	-33579.9	60858	390316	
23840	0.0333534	-0.00616694	0.667962	-0.0185531	0.00326139	2.2617e-10	-209895	-2.24265e+06	-257744	
23930	0.0339912	-0.00425635	0.667305	-0.00929727	0.00255304	7.40267e-10	-82904.6	1.27265e+06	-895663	
23961	0.0339912	-0.00425635	0.667305	-0.00950121	0.00568376	-0.00220333	-82904.6	1.27265e+06	-895663	
23990	0.036623	-0.00850894	0.665871	-0.0095236	0.00602737	-0.00244516	2.21937e+06	-4.69257e+06	-854378	
24020	0.0388528	-0.00897442	0.664841	-0.0087912	0.00447883	-0.0027271	1.28533e+06	-268318	-594179	
24080	0.0381673	-0.00708312	0.66595	-0.00492797	0.00139103	8.29651e-11	-867919	965729	-36178.5	
24111	0.0378016	-0.00646822	0.665691	-0.00555287	0.00208635	-2.60485e-05	-212218	356751	-150295	
24140	0.0378016	-0.00646822	0.665691	-0.0058903	0.00265359	-0.000265018	-212218	356751	-150295	
24171	0.0369549	-0.00734613	0.664884	-0.00594123	0.00273921	-0.000301088	-563862	182358	-459526	
24231	0.0371876	-0.00915782	0.665232	-0.000308669	-0.00449682	4.89233e-10	136049	-1.05934e+06	203476	
24260	0.0372022	-0.0105267	0.666795	-0.00019847	-0.00535488	0.000164816	8583.04	-803873	918040	
24291	0.0377006	-0.0141561	0.667447	-0.00019641	-0.00554781	0.000385146	301661	188660	562210	
24320	0.0377006	-0.0141561	0.667447	0.000138434	-0.0053384	0.0010092	301661	188660	562210	
24380	0.0264284	-0.027878	0.668577	-0.00436014	0.00425627	3.44154e-10	-6.67914e+06	-8.13068e+06	669795	
24470	0.0257345	-0.0225215	0.667955	0.000463482	-0.000700593	1.16134e-10	-1.09297e+06	1.56809e+06	-1.48349e+06	
24531	0.0337753	-0.00143826	0.663243	-0.00486853	-0.00249929	2.56533e-10	-85662.1	2.76155e+06	1.60511e+06	
24560	0.0342093	-0.00165745	0.663499	-0.00491736	-0.000925204	0.000914915	261374	-132008	154415	
24620	0.0312008	0.000370073	0.663818	-0.0045614	-0.00234162	2.97211e-10	-1.81706e+06	1.22458e+06	192853	
24650	0.0375729	0.00606363	0.655665	-0.00554261	-0.00168035	0.000104141	3.86619e+06	3.45448e+06	-4.94718e+06	
24680	0.0331091	0.0151013	0.656511	-0.00345487	0.000185074	-0.00256734	-2.71497e+06	5.49683e+06	514897	
24710	0.0345339	0.0100201	0.656576	-0.00451371	0.00232884	-0.00236653	869097	-3.09922e+06	39678.5	
24770	0.0368086	0.00823062	0.673582	-0.00130674	-0.000858645	1.38464e-10	-436066	2.62119e+06	84972.8	
24800	0.0418549	-0.0054507	0.667784	-0.00139832	-0.000308195	1.78444e-05	3.06006e+06	-5.45206e+06	-3.30397e+06	
24830	0.0452718	-0.0130256	0.669363	0.000345918	-0.00341587	-0.00186542	2.10339e+06	-4.66303e+06	972217	
24860	0.0452718	-0.0130256	0.669363	0.00343791	-0.0102705	-0.000436257	2.10339e+06	-4.66303e+06	972217	
24890	0.0452718	-0.0130256	0.669363	0.00842295	-0.0213219	0.0018679	2.10339e+06	-4.66303e+06	972217	
24920	0.0316435	-0.0196369	0.674584	0.00911707	-0.0228607	0.00218873	-8.45575e+06	-4.10201e+06	3.23921e+06	
24950	0.0296995	-0.0168711	0.671684	0.0032826	-0.0256911	0.00442378	-1.20794e+06	1.71853e+06	-1.80219e+06	
24980	0.0371782	-0.00090836	0.71079	0.00277526	-0.0249693	0.00366686	4.66147e+06	9.94961e+06	2.43753e+07	
25010	0.0365833	-0.00266582	0.710433	0.00557214	-0.0189995	0.018292	-371499	-1.09754e+06	-223455	
25070	0.0365596	-0.00513056	0.710893	0.00222993	-0.00365775	2.63236e-10	-23809.4	-693211	274904	
25100	0.0317583	-0.00807427	0.693259	0.00221493	-0.00409447	0.00017319	-3.01983e+06	-1.85146e+06	-1.10915e+07	
25130	0.0317668	-0.0059619	0.691148	0.00185255	-0.00431665	-0.00115779	5363.29	1.33357e+06	-1.33255e+06	
25161	0.0309172	-0.00622877	0.690253	0.00185545	-0.00359652	-0.00187737	-537054	-168698	-565836	
25221	0.0318466	-0.000282406	0.691164	0.00126124	-0.00211645	1.11013e-10	1.61905e+06	206077	-2.10113e+06	
25250	0.0313912	-0.0082628	0.68954	0.00169838	-0.00206081	-0.000567304	-722645	-4.04186e+06	-1.54159e+06	
25281	0.0313912	-0.0082628	0.68954	0.00083121	-0.00691104	-0.00241721	-722645	-4.04186e+06	-1.54159e+06	
25310	0.0249189	0.00167935	0.692971	0.000397623	-0.00933616	-0.00334217	-4.13955e+06	6.35884e+06	2.19477e+06	
25340	0.0284601	-0.00338054	0.688953	-0.00295541	-0.0041855	-0.00156441	2.269e+06	-3.24212e+06	-2.57453e+06	
25370	0.0284601	-0.00338054	0.688953	0.000924583	-0.00972951	-0.00596685	2.269e+06	-3.24212e+06	-2.57453e+06	
25430	0.0284462	-0.00327533	0.690828	0.00316388	-0.00410939	1.86697e-10	-1.33524e+06	-7.14227e+06	3.46323e+06	
25460	0.0297586	-0.0037406	0.687828	0.0024028	-0.00818048	0.00197404	849496	-301144	-1.94145e+06	
25550	0.0269201	0.0201718	0.673058	0.00262733	-0.00320525	8.9192e-11	-788245	3.92652e+06	1.71155e+06	
25581	0.0196543	0.0101403	0.676372	0.00231992	-0.0016739	0.000667505	-4.74983e+06	-6.55783e+06	2.1666e+06	
25610	0.0122651	-0.0115385	0.679412	0.00132245	-0.00305105	0.00112249	-4.84371e+06	-1.42107e+07	1.99259e+06	
25640	0.0272691	0.00490388	0.670953	-0.000566596	-0.00859324	0.0018996	9.85376e+06	1.07984e+07	-5.55522e+06	
25670	0.0254404	0.00917983	0.674481	0.00741495	0.000153489	-0.00260012	-1.20245e+06	2.81171e+06	2.32012e+06	
25700	0.0258737	0.00844043	0.672858	0.00662134	0.00200922	-0.00106884	285668	-487531	-1.07046e+06	
25760	0.0228301	0.0145358	0.676105	-0.00939667	0.000317002	1.34274e-10	-942507	-265401	350769	
25790	0.0212782	0.00121064	0.686148	-0.00950977	0.000285154	4.20924e-05	-1.03191e+06	-8.86014e+06	6.67768e+06	
25820	0.0212782	0.00121064	0.686148	-0.0105623	-0.00875219	0.00685333	-1.03191e+06	-8.86014e+06	6.67768e+06	
25850	0.0212782	0.00121064	0.686148	-0.0125436	-0.0257637	0.0196745	-1.03191e+06	-8.86014e+06	6.67768e+06	
25880	0.0216197	0.000593712	0.686995	-0.0132865	-0.032143	0.0244824	228348	-412439	566148	
25911	0.0228947	0.0145286	0.676165	-0.0131016	-0.032477	0.024941	854134	9.33541e+06	-7.2552e+06	
25940	0.0249923	0.00893382	0.674514	-0.0128966	-0.0302365	0.0231997	3.03883e+06	-4.33712e+06	1.93854e+06	
25971	0.0236449	0.0108537	0.673072	-0.0109821	-0.0329689	0.024421	-907334	1.29284e+06	-970867	
26000	0.024555	0.00950458	0.671226	-0.0116899	-0.0319605	0.0236637	614029	-910170	-1.2457e+06	
26031	0.0259066	0.00683345	0.672849	-0.0116714	-0.0319878	0.0236264	915803	-1.80985e+06	1.09966e+06	
26060	0.0264361	0.00532076	0.669988	-0.0113143	-0.0326937	0.0240552	359196	-1.02628e+06	-1.94089e+06	
26090	0.0264361	0.00532076	0.669988	-0.0108509	-0.0340176	0.0215515	359196	-1.02628e+06	-1.94089e+06	
26120	0.0279134	0.00718021	0.672864	-0.0107216	-0.034387	0.0208528	148856	3.41312e+06	1.32632e+06	
26151	0.0257064	0.00597645	0.674103	-0.0106144	-0.0319296	0.0218077	-1.5066e+06	-821713	845279	
26180	0.0257064	0.00597645	0.674103	-0.0130099	-0.0332361	0.0231517	-1.5066e+06	-821713	845279	
26210	0.0257335	0.009954	0.673252	-0.0142755	-0.0339263	0.0238618	18580	2.7266e+06	-583451	
26270	0.0211917	0.00293969	0.685756	0.00140763	0.000210755	2.18508e-10	-967557	875159	-1.09079e+06	
26330	0.0256336	-0.0076309	0.684922	0.00133881	0.000200451	4.07329e-10	3.07035e+06	-7.30657e+06	-576539	
26360	0.0297837	0.010283	0.672664	0.00189148	-0.00111473	-0.000103777	2.88237e+06	1.24418e+07	-8.51344e+06	
26390	0.0284213	0.0127802	0.672578	0.00327501	0.00485734	-0.00419023	-947651	1.73702e+06	-59728.7	
26420	0.0298868	0.00849898	0.670527	0.00301915	0.00532633	-0.00420636	1.02221e+06	-2.98633e+06	-1.43066e+06	
26450	0.0298868	0.00849898	0.670527	0.00421514	0.00183232	-0.00588023	1.02221e+06	-2.98633e+06	-1.43066e+06	
26510	0.0287338	-0.00164759	0.668299	0.00189423	-0.00290456	2.41424e-10	1.16657e+06	2.85907e+06	-5.06035e+06	
26540	0.0266222	0.00467419	0.672435	0.0022092	-0.00213261	-0.00136629	-1.48633e+06	4.44986e+06	2.91085e+06	
26600	0.0247376	0.0095939	0.673428	0.00113889	0.00120861	3.99871e-10	-2.47371e+06	4.79331e+06	139059	
26660	0.0245368	-2.85218e-06	0.680411	0.00151517	-0.000733801	1.32627e-10	-1.46219e+06	-3.32385e+06	6.53839e+06	
26690	0.0273735	0.00530746	0.673514	0.000330796	-0.00342612	0.0052961	2.01661e+06	3.77518e+06	-4.90312e+06	
26720	0.0289877	0.0146453	0.674995	0.00135927	-0.00150077	0.0027955	1.15101e+06	6.65838e+06	1.05609e+06	
26751	0.0235147	-0.000538671	0.687654	0.00218799	0.00329326	0.00355589	-3.9095e+06	-1.08464e+07	9.0431e+06	
26780	0.0235147	-0.000538671	0.687654	-0.00402811	-0.0139526	0.0179344	-3.9095e+06	-1.08464e+07	9.0431e+06	
26840	0.0222844	-0.00217477	0.685624	0.0351868	-0.0308005	0.0548303	-882874	-1.17406e+06	-1.45666e+06	
26870	0.0260681	-0.0093346	0.683467	0.034763	-0.031364	0.0541311	2.72852e+06	-5.16322e+06	-1.55549e+06	
26900	0.0235492	0.00769394	0.673453	0.0370549	-0.0357011	0.0528245	-1.81884e+06	1.22964e+07	-7.23119e+06	
26930	0.0237308	0.0107272	0.673863	0.0354725	-0.0250033	0.0465333	131390	2.19505e+06	296308	
26961	0.026956	0.0141508	0.671746	0.0355947	-0.0229619	0.0468089	2.33896e+06	2.48293e+06	-1.53496e+06	
26990	0.0314007	0.0242836	0.67373	0.037349	-0.0210997	0.0456577	3.23179e+06	7.36762e+06	1.44208e+06	
27021	0.0317824	0.0230512	0.673375	0.039288	-0.0166791	0.0465229	278328	-898432	-258286	
27050	0.032274	0.0193784	0.673679	0.0394634	-0.0172451	0.0463602	359146	-2.68325e+06	221978	
27080	0.032274	0.0193784	0.673679	0.0400129	-0.0213505	0.0466998	359146	-2.68325e+06	221978	
27170	0.0305526	0.0220957	0.674165	0.00261097	-0.00302984	4.58589e-10	204766	-1.74272e+06	466715	
27200	0.0320483	0.0183805	0.673871	0.00274611	-0.00418003	0.000308032	1.10484e+06	-2.74421e+06	-217347	
27230	0.0356244	0.0122103	0.669761	0.00334272	-0.00566191	0.000190665	2.64804e+06	-4.56893e+06	-3.04327e+06	
27260	0.0360629	0.0115167	0.671512	0.00572596	-0.00977395	-0.00254828	325174	-514316	1.29844e+06	
27321	0.0362251	0.0138558	0.676516	0.00226339	-0.00328392	4.116e-10	120737	1.7411e+06	3.72482e+06	
27350	0.0362251	0.0138558	0.676516	0.00250607	0.000215693	0.00748689	120737	1.7411e+06	3.72482e+06	
27380	0.0359561	0.011962	0.677481	0.0025278	0.000529092	0.00815736	-375430	2.01007e+06	-130851	
27410	0.0332858	0.0201579	0.680633	0.00247149	0.000830601	0.00813773	-2.00544e+06	6.15541e+06	2.36717e+06	
27471	0.034764	0.0161102	0.678497	-0.0102418	0.00941423	0.014103	1.11149e+06	-3.04376e+06	-1.6056e+06	
27500	0.0364357	0.0138288	0.676937	-0.00947485	0.00731403	0.0129951	1.26216e+06	-1.72242e+06	-1.17768e+06	
27531	0.0343784	0.0205381	0.679792	-0.0092098	0.00695233	0.0127478	-3.12828e+06	8.47662e+06	1.90923e+06	
27560	0.0365881	0.0147955	0.679024	-0.0102421	0.00974961	0.0133779	1.67709e+06	-4.35836e+06	-583272	
27620	0.0344026	0.0160947	0.680426	0.00183538	-0.00220948	1.40689e-10	-2.39657e+06	390233	199774	
27650	0.0366514	0.0101029	0.670727	-3.39424e-05	-0.0019051	0.000155824	1.71602e+06	-4.5722e+06	-7.40108e+06	
27680	0.0321906	0.0205994	0.673907	0.000377901	-0.00300243	-0.00162043	-3.41584e+06	8.03757e+06	2.43509e+06	
27710	0.0342552	0.024061	0.673895	-0.00136418	0.00109673	-0.00037854	1.58336e+06	2.65468e+06	-9320.75	
27740	0.0349392	0.0172122	0.672066	-0.000319161	0.00284882	-0.000384691	525478	-5.26179e+06	-1.40497e+06	
27770	0.0340676	0.0193949	0.672394	4.34189e-05	-0.000781815	-0.00135412	-671016	1.68041e+06	252463	
27801	0.0340676	0.0193949	0.672394	-0.00104363	0.00194046	-0.000945128	-671016	1.68041e+06	252463	
27890	0.0326825	0.0164144	0.674495	0.00243884	-0.00234112	2.74887e-10	-3.43495e+06	-2.13822e+06	632314	
27920	0.0394764	0.0253778	0.718519	0.000274819	-0.0036882	0.000398358	5.28805e+06	6.97674e+06	3.42661e+07	
27980	0.0421672	0.0224522	0.717314	0.0014725	-0.00103455	2.98791e-10	66932.2	-1.51796e+06	-34774.5	
28010	0.0402567	0.00858391	0.700194	0.00150262	-0.00171763	-1.56482e-05	-1.49729e+06	-1.08689e+07	-1.34172e+07	
28070	0.0417374	0.00942646	0.69849	-0.000275468	0.00190076	1.27803e-10	122108	-474745	111363	
28100	0.0393425	0.015247	0.701257	-0.000227846	0.00171561	4.34316e-05	-1.88932e+06	4.59168e+06	2.1825e+06	
28131	0.0393661	0.0178589	0.70186	-0.00102136	0.00364411	0.000960083	18642.5	2.06474e+06	477107	
28160	0.0397062	0.0203118	0.701416	-0.00101689	0.00413965	0.00107459	269586	1.94403e+06	-352224	
28191	0.0397327	0.0199084	0.703587	-0.000838959	0.00542271	0.000842121	21001.4	-320129	1.72323e+06	
28220	0.0397327	0.0199084	0.703587	-0.000806827	0.00493291	0.00347867	21001.4	-320129	1.72323e+06	
28250	0.040702	0.0181025	0.701264	-0.000798006	0.00479846	0.00420242	772793	-1.43972e+06	-1.85228e+06	
28340	0.0397795	0.020463	0.703055	0.000391538	-0.00279689	-0.00468854	-736390	1.88437e+06	1.42972e+06	
28370	0.0399736	0.0187362	0.702703	0.000281079	-0.00251424	-0.00447408	156125	-1.3894e+06	-283429	
28400	0.0399736	0.0187362	0.702703	0.000445011	-0.0039731	-0.00477168	156125	-1.3894e+06	-283429	
28430	0.0399736	0.0187362	0.702703	0.000749454	-0.00668243	-0.00532437	156125	-1.3894e+06	-283429	
28461	0.0445647	0.0108219	0.699883	0.000791608	-0.00705756	-0.00540089	3.71661e+06	-6.40677e+06	-2.28261e+06	
28490	0.0444465	0.012737	0.69694	0.0010146	-0.00744197	-0.00553785	-95926.6	1.55424e+06	-2.38835e+06	
28520	0.0421897	0.0150047	0.698738	0.000974315	-0.00678919	-0.00654096	-1.83386e+06	1.84272e+06	1.4606e+06	
28550	0.0421897	0.0150047	0.698738	-0.00144638	-0.0043568	-0.00461297	-1.83386e+06	1.84272e+06	1.4606e+06	
28580	0.0440885	0.00594053	0.6983	-0.00161143	-0.00419096	-0.00448152	-69142	-67875.2	-1.49294e+06	
28611	0.0409555	0.0106408	0.697584	-0.00164462	-0.00422354	-0.00519813	-2.56178e+06	3.84332e+06	-585646	
28670	0.0407032	0.0107117	0.700036	-0.0128991	0.00891694	3.22375e-10	-412951	3.63076e+06	-366376	
28700	0.041106	0.00890236	0.699595	-0.0132212	0.0117489	-0.000285773	331198	-1.48761e+06	-361961	
28730	0.0428822	0.00936026	0.699687	-0.0129828	0.0106779	-0.000546385	1.46366e+06	377327	75132.6	
28760	0.043094	0.0102952	0.69798	-0.0123241	0.0108477	-0.000512575	174981	772559	-1.40981e+06	
28790	0.0407372	0.0138253	0.698796	-0.0122506	0.0111721	-0.0011047	-1.95152e+06	2.92313e+06	675639	
28820	0.0438076	0.00202775	0.700445	-0.0137728	0.0134522	-0.000577699	2.54566e+06	-9.78132e+06	1.36675e+06	
28850	0.0438076	0.00202775	0.700445	-0.00949609	-0.00298046	0.00171844	2.54566e+06	-9.78132e+06	1.36675e+06	
28940	-0.0359781	-0.161076	0.783235	-0.00978124	0.00676238	-1.64018e-09	-2.85978e+07	-1.2969e+08	1.20169e+07	
29000	0.0333326	-0.106645	0.736303	-0.00908088	0.00627296	-1.38347e-09	2.34924e+07	8.61682e+06	-4.36776e+07	
29031	0.0169878	-0.0933939	0.710583	0.00290024	0.0106675	-0.0222756	-1.37592e+07	1.11547e+07	-2.16517e+07	
29060	0.0169878	-0.0933939	0.710583	-0.0160875	0.026061	-0.0521549	-1.37592e+07	1.11547e+07	-2.16517e+07	
29120	0.0450833	-0.0324569	0.693009	-0.00811489	0.00559164	-2.39771e-09	1.99852e+07	4.63292e+07	-1.47501e+07	
29150	0.0304035	-0.0118968	0.692616	0.0080731	0.0431183	-0.0119476	-1.24507e+07	1.7438e+07	-332983	
29180	0.0310283	-0.00449949	0.691862	0.00657902	0.0452109	-0.0119876	-8.78002e+06	-8.51885e+06	-3.18939e+06	
29211	0.0414988	0.00323237	0.692185	0.00262802	0.0413774	-0.0134228	8.92514e+06	6.59068e+06	275630	
29240	0.0414988	0.00323237	0.692185	0.0144092	0.0500771	-0.013059	8.92514e+06	6.59068e+06	275630	
29271	0.0414988	0.00323237	0.692185	0.0344908	0.0649061	-0.0124388	8.92514e+06	6.59068e+06	275630	
29300	0.0242778	-0.0166461	0.589022	0.0366328	0.0664879	-0.0123726	-1.31767e+07	-6.11705e+06	-8.33456e+07	
29331	0.0242778	-0.0166461	0.589022	0.0212161	0.0593309	-0.109887	-1.31767e+07	-6.11705e+06	-8.33456e+07	
29360	0.015062	-0.00815328	0.539314	0.0148913	0.0563948	-0.149893	-7.93546e+06	7.31291e+06	-4.28018e+07	
29420	0.0631511	-0.0115931	0.450303	0.17671	-0.0278349	5.41987e-10	3.31631e+07	-4.77219e+06	-4.15396e+07	
29450	-0.0351853	-0.0426205	0.364457	0.186659	-0.0292665	-0.0124619	-8.52295e+07	-2.68919e+07	-7.44042e+07	
29511	-0.0447381	-0.0618106	0.297437	0.0782904	0.107622	3.39451e-09	414881	-9.58309e+06	-4.1185e+07	
29540	-0.0612224	-0.0855131	0.249705	0.0784771	0.103309	-0.0185332	-1.43698e+07	-2.06621e+07	-4.16092e+07	
29571	-0.0612224	-0.0855131	0.249705	0.0586467	0.0747956	-0.075954	-1.43698e+07	-2.06621e+07	-4.16092e+07	
29600	-0.0641039	-0.102407	0.217979	0.0474382	0.0586792	-0.108409	-2.52021e+06	-1.47754e+07	-2.77485e+07	
29631	-0.0641039	-0.102407	0.217979	0.0431286	0.0334132	-0.155859	-2.52021e+06	-1.47754e+07	-2.77485e+07	
29660	-0.0641039	-0.102407	0.217979	0.0366265	-0.00470744	-0.22745	-2.52021e+06	-1.47754e+07	-2.77485e+07	
29691	-0.0641039	-0.102407	0.217979	0.0277806	-0.0565692	-0.324848	-2.52021e+06	-1.47754e+07	-2.77485e+07	
29720	-0.075544	-0.124385	0.186289	0.0274025	-0.0587856	-0.32901	-2.92115e+06	-9.90845e+06	5.70354e+06	
29750	-0.075544	-0.124385	0.186289	0.0243353	-0.0691894	-0.323021	-2.92115e+06	-9.90845e+06	5.70354e+06	
29780	-0.075544	-0.124385	0.186289	0.0186391	-0.0885109	-0.311899	-2.92115e+06	-9.90845e+06	5.70354e+06	
29811	-0.0838491	-0.148996	0.166739	0.0173246	-0.0929697	-0.309333	-7.37332e+06	-2.18502e+07	-1.73562e+07	
29900	-0.12705	-0.196201	0.139527	-0.0168743	0.404651	9.301e-10	-2.90015e+07	6.93373e+06	1.61314e+07	
29931	-0.12705	-0.196201	0.139527	-0.0542863	0.413595	0.0208095	-2.90015e+07	6.93373e+06	1.61314e+07	
29960	-0.125837	-0.231934	0.124941	-0.0708171	0.417547	0.0300044	1.08734e+06	-3.20333e+07	-1.30761e+07	
29991	-0.125837	-0.231934	0.124941	-0.0691861	0.369497	0.0103903	1.08734e+06	-3.20333e+07	-1.30761e+07	
30020	-0.102521	-0.266303	0.106448	-0.0682727	0.34259	-0.000593604	2.09731e+07	-3.09156e+07	-1.66349e+07	
30110	-0.119431	-0.326319	0.11156	-0.0462517	0.324545	-4.32609e-10	-2.2384e+07	-4.81435e+07	7.14914e+06	
30200	-0.133849	-0.43999	0.130988	-0.04095	0.28633	1.14767e-10	-1.47939e+06	-3.08862e+07	1.21792e+07	
30230	-0.133849	-0.43999	0.130988	-0.0425478	0.252973	0.0131535	-1.47939e+06	-3.08862e+07	1.21792e+07	
30260	-0.142068	-0.477083	0.139645	-0.0436573	0.229809	0.0222879	-7.51281e+06	-3.39085e+07	7.91332e+06	
30290	-0.142068	-0.477083	0.139645	-0.0560534	0.17386	0.0353449	-7.51281e+06	-3.39085e+07	7.91332e+06	
30320	-0.180971	-0.619257	0.156985	-0.059885	0.156566	0.0393806	-3.57241e+07	-1.30555e+08	1.59233e+07	
30350	-0.165018	-0.716723	0.183383	-0.0631001	0.144816	0.0408137	6.61982e+06	-4.947e+07	1.06443e+07	
30410	-0.177694	-0.808339	0.180254	-0.100424	0.756825	1.00194e-09	-8.34302e+06	-4.31869e+07	8.85211e+06	
30440	-0.20847	-0.845194	0.191626	-0.101425	0.751643	0.00106225	-1.58461e+07	-461561	-1.13773e+07	
30470	-0.212448	-0.878276	0.198026	-0.10808	0.751449	-0.00371623	-3.6897e+06	-3.06857e+07	5.93694e+06	
30500	-0.221533	-0.90262	0.20059	-0.109519	0.739481	-0.00140082	-8.44419e+06	-2.26261e+07	2.38265e+06	
30531	-0.218689	-0.940876	0.206868	-0.114586	0.725906	2.87721e-05	2.64772e+06	-3.56137e+07	5.84499e+06	
30560	-0.239416	-0.977117	0.211638	-0.1126	0.699196	0.00441252	-1.93261e+07	-3.37904e+07	4.44746e+06	
30591	-0.239276	-0.997541	0.236023	-0.116658	0.6921	0.00534648	131760	-1.91041e+07	2.28087e+07	
30620	-0.227611	-1.05137	0.26878	-0.116623	0.686941	0.0115048	1.09299e+07	-5.04444e+07	3.0695e+07	
30651	-0.233077	-1.11781	0.316424	-0.112032	0.665755	0.0243967	-5.13007e+06	-6.23536e+07	4.47192e+07	
30680	-0.234716	-1.16906	0.333178	-0.112956	0.654531	0.0324462	-1.54222e+06	-4.8229e+07	1.57646e+07	
30710	-0.234716	-1.16906	0.333178	-0.114621	0.602444	0.049472	-1.54222e+06	-4.8229e+07	1.57646e+07	
30770	-0.22513	-1.25935	0.372075	-0.0559461	0.591758	1.24187e-09	3.48374e+06	-3.58462e+07	2.15959e+07	
30830	-0.201892	-1.31989	0.419651	-0.0541133	0.570874	2.85533e-09	1.05606e+07	-1.74958e+07	1.79932e+07	
30860	-0.207244	-1.35982	0.455031	-0.0499947	0.564051	0.00701737	-5.09208e+06	-3.80013e+07	3.36657e+07	
30891	-0.196304	-1.36753	0.473214	-0.0518278	0.55037	0.019137	1.04312e+07	-7.34594e+06	1.73371e+07	
30920	-0.205203	-1.41579	0.509037	-0.0455691	0.545963	0.0295393	-8.49712e+06	-4.60789e+07	3.42042e+07	
30950	-0.191643	-1.44839	0.528796	-0.0524517	0.508639	0.0572447	1.2967e+07	-3.11774e+07	1.88945e+07	
30980	-0.183731	-1.47192	0.528664	-0.0485616	0.499285	0.062913	7.58837e+06	-2.25638e+07	-126487	
31010	-0.183731	-1.47192	0.528664	-0.0394556	0.472209	0.0627612	7.58837e+06	-2.25638e+07	-126487	
31040	-0.196904	-1.51416	0.53201	-0.0355855	0.460701	0.0626967	-1.26784e+07	-4.06554e+07	3.21997e+06	
31070	-0.229328	-1.54324	0.540759	-0.0428122	0.437528	0.0645321	-3.12623e+07	-2.8042e+07	8.43609e+06	
31100	-0.229328	-1.54324	0.540759	-0.0887678	0.396306	0.0769332	-3.12623e+07	-2.8042e+07	8.43609e+06	
31130	-0.217743	-1.57194	0.575947	-0.115028	0.372751	0.0840195	1.12071e+07	-2.77581e+07	3.40378e+07	
31160	-0.239619	-1.61255	0.597939	-0.109312	0.358594	0.101379	-2.12169e+07	-3.93888e+07	2.13303e+07	
31190	-0.239619	-1.61255	0.597939	-0.139228	0.303056	0.131454	-2.12169e+07	-3.93888e+07	2.13303e+07	
31220	-0.235923	-1.63146	0.608891	-0.154504	0.274696	0.146812	3.59637e+06	-1.83975e+07	1.06579e+07	
31250	-0.238858	-1.61736	0.631389	-0.152778	0.265865	0.151928	-2.86343e+06	1.37498e+07	2.19482e+07	
31280	-0.228772	-1.648	0.655585	-0.153036	0.267103	0.153903	9.86681e+06	-2.99736e+07	2.36705e+07	
31310	-0.228772	-1.648	0.655585	-0.143268	0.237429	0.177337	9.86681e+06	-2.99736e+07	2.36705e+07	
31340	-0.21943	-1.66867	0.685805	-0.13498	0.212251	0.19722	9.1589e+06	-2.02591e+07	2.96283e+07	
31491	-0.333619	-1.78395	0.759935	-0.237829	0.0694679	-1.08174e-09	-8.04994e+07	-2.74356e+07	-1.3759e+07	
31520	-0.254115	-1.79071	0.789897	-0.288543	0.0521835	-0.00866817	7.88832e+07	-6.70451e+06	2.97274e+07	
31551	-0.207072	-1.81476	0.935333	-0.279077	0.0513789	-0.00510089	1.07162e+07	1.37417e+06	4.84468e+07	
31580	-0.209109	-1.79339	0.945755	-0.276184	0.05175	0.00797976	-2.03065e+06	2.12969e+07	1.03879e+07	
31610	-0.202926	-1.81102	0.947107	-0.277463	0.065167	0.0145241	6.17013e+06	-1.75895e+07	1.34911e+06	
31640	-0.201666	-1.79636	0.947136	-0.272095	0.0498641	0.0156978	1.259e+06	1.4649e+07	28849.5	
31670	-0.210851	-1.80397	0.943712	-0.271453	0.0573351	0.0157126	-9.20306e+06	-7.62159e+06	-3.43037e+06	
31700	-0.210851	-1.80397	0.943712	-0.284429	0.0465887	0.0108757	-9.20306e+06	-7.62159e+06	-3.43037e+06	
31760	-0.205089	-1.75417	0.893245	-0.181444	0.052952	-1.63654e-10	-8.74283e+06	3.65903e+07	-5.09595e+07	
31850	-0.192337	-1.71479	0.886446	-0.165834	0.0483868	-3.17415e-10	1.36222e+07	4.68017e+07	-1.00721e+07	
31880	-0.194421	-1.73044	0.887426	-0.158887	0.0722557	-0.00513678	-2.11628e+06	-1.58848e+07	995261	
31910	-0.193977	-1.74358	0.966825	-0.160728	0.0584359	-0.0042709	452117	-1.33602e+07	8.07014e+07	
31940	-0.193186	-1.7471	0.962584	-0.160538	0.0528246	0.0296237	805561	-3.58786e+06	-4.32297e+06	
31970	-0.190516	-1.73648	0.95552	-0.160418	0.0522864	0.0289753	2.72786e+06	1.08593e+07	-7.2179e+06	
32000	-0.197721	-1.73071	0.949021	-0.159272	0.0568473	0.0259437	-7.37098e+06	5.90475e+06	-6.64911e+06	
32031	-0.197312	-1.7273	0.947661	-0.163473	0.060213	0.0221538	419263	3.48887e+06	-1.39341e+06	
32060	-0.199972	-1.72989	0.947974	-0.163272	0.0618877	0.0214849	-2.73155e+06	-2.65813e+06	321029	
32120	-0.199607	-1.72973	0.947191	-0.035269	0.0071088	4.52014e-10	375544	161221	-805914	
32150	-0.205018	-1.73503	0.967092	-0.0351901	0.00714266	-0.000169241	-1.39656e+06	-3.99763e+06	774392	
32180	-0.205018	-1.73503	0.967092	-0.0367403	0.00270529	0.000690334	-1.39656e+06	-3.99763e+06	774392	
32210	-0.204407	-1.73586	0.969485	-0.0371174	0.00162593	0.00089942	632987	-862363	2.48106e+06	
32240	-0.198498	-1.73195	0.970647	-0.0367566	0.00113438	0.00231362	6.13513e+06	4.05979e+06	1.2063e+06	
32271	-0.201631	-1.72669	0.961026	-0.0319712	0.00430102	0.00325453	-3.25738e+06	5.46644e+06	-1.00035e+07	
32300	-0.201372	-1.71975	0.958763	-0.0332416	0.00643293	-0.000646819	269534	7.23813e+06	-2.35821e+06	
32331	-0.201059	-1.71708	0.959089	-0.033185	0.00795294	-0.00114204	327029	2.78458e+06	340385	
32360	-0.202421	-1.72439	0.956051	-0.0330084	0.00945661	-0.000958236	-1.42421e+06	-7.64176e+06	-3.17774e+06	
32391	-0.205309	-1.73871	0.962623	-0.0342902	0.00257902	-0.0038182	-3.02408e+06	-1.50019e+07	6.882e+06	
32420	-0.210671	-1.72916	0.962784	-0.036649	-0.00912244	0.00154976	-5.62756e+06	1.00287e+07	169073	
32451	-0.210381	-1.72496	0.976974	-0.0408696	-0.00160092	0.00167657	305130	4.40989e+06	1.49198e+07	
32480	-0.192364	-1.72058	0.97326	-0.0407048	0.000780418	0.00973327	1.89866e+07	4.62087e+06	-3.91357e+06	
32511	-0.192364	-1.72058	0.97326	-0.0127946	0.0075731	0.00398032	1.89866e+07	4.62087e+06	-3.91357e+06	
32540	-0.207881	-1.70985	0.971717	-0.00823783	0.00868211	0.00304107	-9.49864e+06	1.45316e+07	2.61689e+06	
32571	-0.207606	-1.71095	0.976036	-0.00937766	0.0104259	0.00335509	291441	-1.1707e+06	4.58058e+06	
32600	-0.207606	-1.71095	0.976036	-0.00908913	0.0092669	0.00788987	291441	-1.1707e+06	4.58058e+06	
32631	-0.213109	-1.71457	0.98091	-0.00901045	0.00895081	0.00912663	-756439	-4.31866e+06	1.24790e+06	
32660	-0.213109	-1.71457	0.98091	-0.00987279	0.00402755	0.0105492	-756439	-4.31866e+06	1.24790e+06	
32690	-0.213109	-1.71457	0.98091	-0.0114159	-0.00478252	0.013095	-756439	-4.31866e+06	1.24790e+06	
32720	-0.205191	-1.7174	0.980794	-0.0116429	-0.00607811	0.0134693	8.47178e+06	-3.02128e+06	-124359	
32750	-0.206851	-1.7163	0.980185	-0.00960963	-0.00680322	0.0134395	-1.77905e+06	1.17094e+06	-652264	
32810	-0.196156	-1.72602	0.992662	0.00134521	0.000668525	6.22155e-11	5.04878e+06	-8.99585e+06	1.98323e+06	
32840	-0.20076	-1.72768	0.992447	0.00392009	-0.00391936	0.00101145	-4.96048e+06	-1.7922e+06	-232579	
32870	-0.195944	-1.72964	0.995009	0.00258076	-0.00440325	0.000948649	5.20107e+06	-2.11093e+06	2.76724e+06	
32930	-0.19895	-1.7071	1.00419	-0.00128942	0.00153457	1.70061e-10	1.47695e+07	8.24609e+06	3.2542e+06	
32960	-0.198943	-1.70641	1.00117	0.00402761	0.00450317	0.00117151	7380.42	747141	-3.28085e+06	
32991	-0.198943	-1.70641	1.00117	0.00403713	0.00546698	-0.00306078	7380.42	747141	-3.28085e+06	
33020	-0.213367	-1.7089	0.989768	0.00403956	0.00571353	-0.00414346	-1.57881e+07	-1.416e+06	-1.56002e+07	
33050	-0.213367	-1.7089	0.989768	-0.0153798	0.00397185	-0.0233317	-1.57881e+07	-1.416e+06	-1.56002e+07	
33080	-0.215323	-1.70916	0.992007	-0.0210635	0.00346209	-0.0289477	-2.13932e+06	-284743	2.44812e+06	
33140	-0.213877	-1.70973	0.98939	0.000261565	0.00182223	1.59696e-10	-561572	3.97424e+06	-2.07388e+06	
33171	-0.213877	-1.70973	0.98939	-0.000496558	0.00718745	-0.00279974	-561572	3.97424e+06	-2.07388e+06	
33200	-0.213877	-1.70973	0.98939	-0.00174325	0.0160103	-0.00740376	-561572	3.97424e+06	-2.07388e+06	
33231	-0.190604	-1.71121	0.994308	-0.00216443	0.0189909	-0.00895918	2.5661e+07	-1.6256e+06	5.4224e+06	
33260	-0.201755	-1.7219	1.01106	0.0109227	0.0181619	-0.00619375	-1.2323e+07	-1.18163e+07	1.8511e+07	
33320	-0.212738	-1.71413	1.01872	0.000524119	0.000980336	2.09525e-10	-4.21137e+06	3.87493e+06	2.13589e+06	
33350	-0.218166	-1.70063	1.00473	-0.001371	0.00272405	0.000961151	-6.03177e+06	1.49981e+07	-1.55428e+07	
33380	-0.219413	-1.70322	1.00485	-0.00625673	0.0148725	-0.0116286	-1.3869e+06	-2.8729e+06	133544	
33440	-0.21966	-1.70013	1.00446	-0.00018223	-0.000830613	1.99963e-10	-1.35132e+07	184999	-1.47625e+06	
33470	-0.217532	-1.70133	1.00384	-0.00545239	-0.000758464	-0.000575737	2.38205e+06	-1.3467e+06	-693051	
33500	-0.217602	-1.70046	1.00616	-0.00359439	-0.00180889	-0.00111632	-77640.5	975098	2.59616e+06	
33530	-0.213772	-1.69818	1.00423	-0.00364563	-0.00116532	0.000597146	4.30034e+06	2.5617e+06	-2.16173e+06	
33560	-0.215797	-1.69595	1.00144	-0.00145246	0.000141144	-0.000505334	-2.27863e+06	2.50879e+06	-3.1461e+06	
33590	-0.215333	-1.69859	1.00259	-0.00343487	0.00232379	-0.00324244	522920	-2.97702e+06	1.29518e+06	
33620	-0.216009	-1.69824	0.997597	-0.00329368	0.00151999	-0.00289274	-763598	397699	-5.63807e+06	
33650	-0.216009	-1.69824	0.997597	-0.00418709	0.0019853	-0.00948928	-763598	397699	-5.63807e+06	
33680	-0.216009	-1.69824	0.997597	-0.00576774	0.00280854	-0.0211601	-763598	397699	-5.63807e+06	
33710	-0.22296	-1.70132	1.00209	-0.00629462	0.00308295	-0.0250504	-7.88835e+06	-3.4934e+06	5.09553e+06	
33740	-0.2155	-1.71044	0.995415	-0.0119742	0.000567702	-0.0213816	8.48062e+06	-1.03655e+07	-7.5843e+06	
33770	-0.216069	-1.70794	0.993595	-0.0073947	-0.00502967	-0.0254771	-648486	2.84528e+06	-2.07386e+06	
33830	-0.228274	-1.70911	0.998549	-0.000746045	0.00754029	2.70951e-10	-1.45698e+07	-5.15075e+06	5.95714e+06	
33860	-0.232319	-1.706	0.994043	-0.0134218	0.00305914	0.00518271	-4.62959e+06	3.56022e+06	-5.15762e+06	
33890	-0.230035	-1.70822	0.993753	-0.0145329	0.00391359	0.00394488	3.89272e+06	-7.51056e+06	4.14167e+06	
33920	-0.226123	-1.71068	0.993336	-0.0134818	0.00188574	0.00506313	4.49849e+06	-2.82996e+06	-480013	
33950	-0.226123	-1.71068	0.993336	-0.00821858	-0.00142531	0.00450152	4.49849e+06	-2.82996e+06	-480013	
33980	-0.228411	-1.70837	0.99558	-0.0043049	-0.00388737	0.0040839	-2.63696e+06	2.65414e+06	2.58672e+06	
34010	-0.227914	-1.70585	0.993439	-0.00659906	-0.00157827	0.00633435	572949	2.91994e+06	-2.47204e+06	
34040	-0.232732	-1.71312	0.998193	-0.0062381	0.000261296	0.00477697	-5.57517e+06	-8.42267e+06	5.50169e+06	
34071	-0.235732	-1.71029	0.994896	-0.0112558	-0.00731911	0.0097285	-3.4764e+06	3.28683e+06	-3.81996e+06	
34130	-0.2346	-1.70699	0.996859	0.00150883	-0.00067831	3.32345e-10	1.31563e+06	3.82989e+06	2.28079e+06	
34160	-0.234864	-1.70816	0.995138	0.0021798	0.00127493	0.0011632	-307683	-1.36036e+06	-2.00624e+06	
34190	-0.234864	-1.70816	0.995138	0.00174597	-0.000643176	-0.00166559	-307683	-1.36036e+06	-2.00624e+06	
34221	-0.223113	-1.708	0.994476	0.00147828	-0.00182669	-0.00341101	1.37373e+07	189887	-774248	
34250	-0.191728	-1.71733	1.00057	0.00271464	-0.0018096	-0.0034807	7.8963e+06	-7.39864e+06	-1.50291e+06	
34370	-0.211222	-1.7098	1.00089	-0.000900435	0.00419605	1.39893e-10	3.98077e+06	638904	2.26553e+06	
34461	-0.201387	-1.72552	0.999404	0.000355344	0.00179189	3.50691e-10	1.26978e+07	-1.30633e+06	-3.04895e+06	
34490	-0.201135	-1.71312	0.992174	0.00645027	0.00116485	-0.0014635	299427	1.47459e+07	-8.59215e+06	
34521	-0.197644	-1.71646	0.99306	0.00668382	0.0126667	-0.00816537	4.15378e+06	-3.98127e+06	1.05455e+06	
34550	-0.197931	-1.71448	0.992991	0.010173	0.00932242	-0.00727955	-342244	2.36746e+06	-82578.1	
34581	-0.197384	-1.71972	0.993656	0.00993685	0.010956	-0.00733653	653940	-6.26568e+06	794471	
34640	-0.195823	-1.71426	0.993726	-0.000643635	-0.000230622	4.68913e-10	1.86899e+06	6.54087e+06	84086.1	
34670	-0.213839	-1.71141	0.990643	-0.000363286	0.000750509	1.26134e-05	-2.16485e+07	3.41806e+06	-3.70546e+06	
34730	-0.228042	-1.70776	0.985285	-0.000618995	0.00133476	1.59521e-10	-3.67513e+06	4.18867e+06	753893	
34761	-0.22535	-1.7141	0.98774	-0.0037061	0.00485324	0.00063327	3.2474e+06	-7.64585e+06	2.96219e+06	
34820	-0.233707	-1.71117	0.987413	0.00200432	-0.00704531	1.14083e-10	475956	-2.53971e+06	-479848	
34850	-0.23037	-1.70927	0.971388	0.0022185	-0.00818817	-0.000215932	4.04912e+06	2.29802e+06	-1.94454e+07	
34880	-0.2287	-1.7016	0.968341	0.00476944	-0.00674042	-0.0124665	2.02973e+06	9.32722e+06	-3.70348e+06	
34910	-0.228197	-1.70147	0.972532	0.00519568	-0.0047817	-0.0132443	612631	154300	5.10675e+06	
34941	-0.223386	-1.70025	0.982025	0.00554488	-0.00469375	-0.0103334	5.86679e+06	1.48698e+06	1.15764e+07	
34970	-0.198996	-1.70816	0.975024	0.00941696	-0.00371235	-0.00269297	2.97888e+07	-9.65905e+06	-8.55125e+06	
35001	-0.195143	-1.70963	0.991846	0.0183536	-0.00661006	-0.00525834	4.71822e+06	-1.79503e+06	2.05971e+07	
35030	-0.195525	-1.70983	0.990372	0.0213261	-0.00774093	0.0077178	-468725	-251121	-1.80715e+06	
35121	-0.211406	-1.73382	0.999958	-0.00308509	0.000249495	-3.12125e-09	2.74794e+07	-7.24394e+06	-8.61204e+06	
35181	-0.232501	-1.72166	0.999086	-0.00289057	0.00023371	-2.81474e-09	-1.24651e+07	1.00775e+07	-2.27878e+07	
35210	-0.222207	-1.70884	0.99231	-0.0107436	0.00658251	-0.0143563	1.27462e+07	1.58693e+07	-8.39144e+06	
35241	-0.188884	-1.73719	1.01338	-0.00309583	0.0161041	-0.0193912	4.13386e+07	-3.51673e+07	2.61378e+07	
35301	-0.234837	-1.78531	0.967852	-0.0025763	0.000208277	-3.55061e-10	1.24447e+07	-8.45472e+06	-2.03426e+06	
35330	-0.234837	-1.78531	0.967852	0.0104906	-0.00866918	-0.00213598	1.24447e+07	-8.45472e+06	-2.03426e+06	
35360	-0.247935	-1.77162	0.939307	0.0205708	-0.0155175	-0.00378373	-1.63514e+07	1.70868e+07	-3.56369e+07	
35390	-0.270515	-1.73675	0.959397	0.00879787	-0.00321501	-0.0294423	-2.8243e+07	4.36168e+07	2.51284e+07	
35420	-0.25674	-1.7234	0.948158	-0.0132317	0.0308061	-0.00984218	1.72567e+07	1.6727e+07	-1.40806e+07	
35450	-0.259241	-1.70623	0.890024	-0.00753697	0.036326	-0.0144888	-3.14056e+06	2.15692e+07	-7.30106e+07	
35480	-0.272416	-1.67779	0.852013	-0.00876179	0.044738	-0.0429629	-1.65729e+07	3.5773e+07	-4.78154e+07	
35510	-0.268069	-1.6634	0.842214	-0.0152252	0.0586895	-0.0616109	5.47658e+06	1.81282e+07	-1.23462e+07	
35541	-0.268069	-1.6634	0.842214	-0.00799613	0.0826188	-0.0779079	5.47658e+06	1.81282e+07	-1.23462e+07	
35570	-0.286422	-1.65355	0.830194	-0.00372439	0.0967588	-0.0875379	-2.31859e+07	1.24457e+07	-1.51865e+07	
35600	-0.2832	-1.65236	0.821151	-0.0113757	0.100866	-0.0925494	4.08074e+06	1.50728e+06	-1.14536e+07	
35630	-0.269115	-1.62891	0.8182	-0.0112533	0.100911	-0.092893	1.78791e+07	2.97715e+07	-3.74547e+06	
35661	-0.262559	-1.61648	0.823948	-0.00428048	0.112522	-0.0943538	8.33170e+06	1.57913e+07	7.30353e+06	
35690	-0.255268	-1.60349	0.802973	0.00171835	0.123892	-0.0890952	9.2745e+06	1.65235e+07	-2.66816e+07	
35721	-0.225764	-1.59394	0.750982	0.00617011	0.131823	-0.101902	3.7613e+07	1.21774e+07	-6.62803e+07	
35750	-0.227039	-1.54508	0.72848	0.0208392	0.136572	-0.127752	-1.62799e+06	6.23982e+07	-2.87377e+07	
35781	-0.215606	-1.48086	0.745292	0.019667	0.181499	-0.148443	1.46182e+07	8.21153e+07	2.14951e+07	
35840	-0.228747	-1.47534	0.716739	-0.0244877	-0.0473577	2.23183e-09	-1.68504e+07	7.0713e+06	-3.66106e+07	
35870	-0.184462	-1.31751	0.668337	-0.0285318	-0.0456606	-0.00878654	5.4123e+07	9.74298e+07	-5.07617e+07	
35901	-0.184462	-1.31751	0.668337	0.0347921	0.0683323	-0.0681777	5.4123e+07	9.74298e+07	-5.07617e+07	
35930	-0.218196	-1.23685	0.681521	0.0672659	0.12679	-0.0986347	-4.35004e+07	1.0401e+08	1.70018e+07	
35961	-0.224479	-1.22623	0.611103	0.0320306	0.211038	-0.0848632	-8.1134e+06	1.3718e+07	-9.09277e+07	
36021	-0.227169	-1.07422	0.617848	-0.0673398	-0.0227577	2.2451e-09	-6.78078e+07	5.79579e+07	-9.33604e+06	
36081	-0.232514	-0.956792	0.621069	-0.0631463	-0.0212815	1.06215e-09	-2.25875e+07	8.62734e+07	1.76788e+07	
36110	-0.232514	-0.956792	0.621069	-0.107869	0.14954	0.035004	-2.25875e+07	8.62734e+07	1.76788e+07	
36140	-0.249987	-0.876159	0.55599	-0.120067	0.196127	0.0445505	-2.27992e+07	1.05209e+08	-8.49149e+07	
36170	-0.244685	-0.750881	0.562771	-0.125538	0.221378	0.0241709	5.86437e+06	3.6202e+07	5.07036e+07	
36201	-0.254143	-0.75335	0.555498	-0.121844	0.244185	0.0561142	-1.23803e+07	-3.2317e+06	-9.52082e+06	
36230	-0.250909	-0.728496	0.553327	-0.124072	0.243603	0.0544004	4.24303e+06	3.26127e+07	-2.84783e+06	
36261	-0.292329	-0.71747	0.540901	-0.121908	0.260236	0.052948	-5.44098e+07	1.44848e+07	-1.63229e+07	
36290	-0.317346	-0.707736	0.541573	-0.159451	0.27023	0.0416852	-3.29045e+07	1.28033e+07	883934	
36321	-0.317346	-0.707736	0.541573	-0.212756	0.290972	0.0431172	-3.29045e+07	1.28033e+07	883934	
36350	-0.299846	-0.656393	0.536979	-0.236448	0.30019	0.0437536	2.30925e+07	6.77502e+07	-6.06316e+06	
36410	-0.34751	-0.638264	0.53337	-0.0207681	-0.542901	-1.22288e-09	-1.18706e+07	3.71709e+07	-2.14605e+06	
36441	-0.374287	-0.600227	0.544554	-0.0278904	-0.520598	-0.00128763	-3.55189e+07	5.04558e+07	1.48350e+07	
36530	-0.363122	-0.543401	0.52788	-0.0190113	-0.494285	8.43269e-10	-6.36001e+06	2.77094e+07	5.0737e+06	
36561	-0.364186	-0.536887	0.523845	-0.0228273	-0.477659	0.00304422	-1.4205e+06	8.69759e+06	-5.38871e+06	
36590	-0.364186	-0.536887	0.523845	-0.0249154	-0.464874	-0.00487718	-1.4205e+06	8.69759e+06	-5.38871e+06	
36620	-0.359087	-0.512018	0.512735	-0.0252137	-0.463047	-0.00600881	6.83435e+06	3.33372e+07	-1.4893e+07	
36650	-0.377859	-0.483232	0.500327	-0.0225483	-0.450046	-0.0118171	-2.51968e+07	3.86389e+07	-1.6655e+07	
36680	-0.376671	-0.440832	0.492717	-0.0361546	-0.429181	-0.0208108	1.59719e+06	5.69897e+07	-1.02278e+07	
36710	-0.411549	-0.335183	0.478312	-0.0360588	-0.425762	-0.0214245	-9.56537e+06	9.82187e+07	-2.08676e+07	
36770	-0.404113	-0.325339	0.504499	-0.0839571	-0.224174	1.37259e-09	1.00354e+07	1.32857e+07	3.53395e+07	
36800	-0.432519	-0.377753	0.507287	-0.0803444	-0.219391	0.0127222	-3.84436e+07	-7.0935e+07	3.7738e+06	
36830	-0.432519	-0.377753	0.507287	-0.128783	-0.308769	0.0174772	-3.84436e+07	-7.0935e+07	3.7738e+06	
36860	-0.447414	-0.385362	0.515403	-0.156463	-0.359842	0.0201943	-2.02105e+07	-1.03254e+07	1.1012e+07	
36890	-0.445872	-0.377885	0.515233	-0.166164	-0.364799	0.0254801	2.0972e+06	1.0167e+07	-231672	
36920	-0.467933	-0.347073	0.525352	-0.165786	-0.362969	0.0254384	-2.20919e+07	3.99012e+07	8.31298e+06	
36950	-0.482121	-0.333625	0.530083	-0.175728	-0.345013	0.0291792	-1.93559e+07	1.83448e+07	6.45372e+06	
36980	-0.528254	-0.315418	0.54407	-0.189083	-0.332355	0.0336323	-6.30088e+07	2.48676e+07	1.91039e+07	
37010	-0.532432	-0.34729	0.55423	-0.226888	-0.317435	0.0450946	-5.71704e+06	-4.36096e+07	1.39016e+07	
37041	-0.514323	-0.347423	0.563877	-0.231519	-0.352758	0.0563549	2.48101e+07	-181503	1.32173e+07	
37070	-0.514323	-0.347423	0.563877	-0.189838	-0.353063	0.0785599	2.48101e+07	-181503	1.32173e+07	
37130	-0.485952	-0.360393	0.562351	-0.0939393	0.0547027	-2.58326e-10	1.76918e+07	1.84715e+06	-1.3442e+07	
37161	-0.511601	-0.379064	0.580879	-0.0827935	0.0558664	-0.00846848	-3.53798e+07	-2.57546e+07	2.5557e+07	
37190	-0.501501	-0.38985	0.570889	-0.107206	0.0380957	0.00916583	1.39519e+07	-1.48994e+07	-1.37999e+07	
37220	-0.543193	-0.339259	0.564442	-0.0979972	0.0282621	5.78641e-05	-5.76886e+07	7.00026e+07	-8.9218e+06	
37250	-0.532948	-0.3416	0.565381	-0.122226	0.0576632	-0.00368929	1.42037e+07	-3.2459e+06	1.3024e+06	
37280	-0.513334	-0.365516	0.582134	-0.118818	0.0568841	-0.00337672	2.72485e+07	-3.32243e+07	2.32742e+07	
37340	-0.563054	-0.323567	0.578253	-0.00436599	0.0363348	-1.86844e-10	-1.10097e+07	1.68874e+07	-2.44872e+06	
37400	-0.558724	-0.361026	0.581849	0.00544212	0.0262849	4.50828e-11	1.32794e+07	6.02589e+06	-1.16554e+07	
37490	-0.55862	-0.373742	0.595507	0.00609202	0.0122235	2.06913e-10	-1.20795e+07	2.46117e+07	-3.55225e+06	
37521	-0.54283	-0.387946	0.592555	0.0042801	0.0159152	-0.000532837	4.70604e+07	-5.76152e+07	6.40393e+06	
37550	-0.54283	-0.387946	0.592555	0.0522818	-0.0428522	0.00599917	4.70604e+07	-5.76152e+07	6.40393e+06	
37581	-0.54283	-0.387946	0.592555	0.14405	-0.155202	0.0184868	4.70604e+07	-5.76152e+07	6.40393e+06	
37610	-0.541964	-0.389787	0.597344	0.182169	-0.20187	0.023674	1.2228e+06	-2.6003e+06	6.76464e+06	
37641	-0.536564	-0.407532	0.581081	0.182352	-0.20226	0.0246887	1.72721e+06	2.15645e+07	-1.94259e+07	
37700	-0.545575	-0.379357	0.589761	0.0117857	0.0167188	2.75795e-10	-7.45635e+06	-5.98218e+06	2.1013e+07	
37730	-0.539475	-0.375183	0.592436	0.0104435	0.015642	0.00378234	8.68055e+06	5.93982e+06	3.80645e+06	
37761	-0.539928	-0.390538	0.596591	0.015131	0.0188495	0.00583783	-644710	-2.18745e+07	5.91854e+06	
37790	-0.540674	-0.382222	0.591808	0.0148215	0.00834975	0.00867873	-1.06477e+06	1.18668e+07	-6.8236e+06	
37820	-0.548929	-0.398551	0.596842	0.0145341	0.0115538	0.00683636	-1.18028e+07	-2.33455e+07	7.19561e+06	
37881	-0.553141	-0.410963	0.602277	0.0114556	0.00748046	5.80065e-10	-6.0325e+06	-1.77807e+07	7.7865e+06	
37910	-0.561841	-0.393566	0.599039	0.00656929	-0.00692192	0.00630706	-1.24866e+07	2.49668e+07	-4.64662e+06	
37941	-0.567866	-0.375658	0.591071	0.00319792	-0.000180899	0.00505248	-8.66793e+06	2.57681e+07	-1.14647e+07	
37970	-0.559346	-0.374402	0.592726	-0.00200284	0.0152799	-0.00182633	1.22706e+07	1.80873e+06	2.38254e+06	
38001	-0.559859	-0.388185	0.602847	0.00683201	0.0165822	-0.000110906	-740239	-1.98795e+07	1.45977e+07	
38030	-0.561677	-0.424003	0.61296	0.00665435	0.0118111	0.00339253	-2.62781e+06	-5.17813e+07	1.46202e+07	
38061	-0.561677	-0.424003	0.61296	0.00357981	-0.0487729	0.0204981	-2.62781e+06	-5.17813e+07	1.46202e+07	
38090	-0.552372	-0.433151	0.61158	0.00216079	-0.0767348	0.028393	1.34866e+07	-1.32586e+07	-2.0008e+06	
38121	-0.559462	-0.43158	0.610388	0.00822974	-0.0827012	0.0274926	-1.02945e+07	2.28005e+06	-1.73073e+06	
38150	-0.564367	-0.43134	0.613106	0.00205304	-0.0813331	0.0264542	-7.13183e+06	349006	3.95233e+06	
38181	-0.569593	-0.426131	0.613661	-0.00265397	-0.0811028	0.0290627	-7.60892e+06	7.58559e+06	807155	
38210	-0.574451	-0.423878	0.620174	-0.00699105	-0.076779	0.0295228	-7.08621e+06	3.28552e+06	9.49958e+06	
38240	-0.57678	-0.473678	0.645348	-0.0114554	-0.0747091	0.0355075	-3.40244e+06	-7.27416e+07	3.67722e+07	
38301	-0.588646	-0.498058	0.659362	-0.0415085	0.0181035	2.12522e-09	-3.19418e+06	-3.58002e+07	1.44039e+07	
38330	-0.590885	-0.516926	0.672017	-0.0431375	-0.000154595	0.007346	-3.28624e+06	-2.76964e+07	1.85753e+07	
38360	-0.590885	-0.516926	0.672017	-0.0477711	-0.0392065	0.0335372	-3.28624e+06	-2.76964e+07	1.85753e+07	
38420	-0.581969	-0.574922	0.702655	-0.0740777	0.032483	8.93885e-10	8.3003e+06	-3.34176e+07	1.43333e+07	
38450	-0.565171	-0.578699	0.705484	-0.0710896	0.0204527	0.00515999	2.48192e+07	-5.58055e+06	4.17942e+06	
38481	-0.582113	-0.562875	0.709871	-0.0591764	0.017774	0.00716611	-2.50664e+07	2.34124e+07	6.49122e+06	
38510	-0.574308	-0.543781	0.710159	-0.0689523	0.0269049	0.00969769	1.15672e+07	2.82976e+07	427184	
38541	-0.574308	-0.543781	0.710159	-0.0536835	0.0642578	0.0102616	1.15672e+07	2.82976e+07	427184	
38570	-0.553827	-0.52048	0.714331	-0.0498663	0.073596	0.0104025	3.04501e+07	3.46449e+07	6.20243e+06	
38601	-0.507406	-0.534015	0.732697	-0.0279423	0.0985404	0.0148683	6.90834e+07	-2.01439e+07	2.73323e+07	
38630	-0.491327	-0.501602	0.736961	0.00107276	0.0900799	0.0263478	2.3977e+07	4.83343e+07	6.35771e+06	
38661	-0.496836	-0.482163	0.734064	0.0204941	0.129231	0.0314976	-8.22294e+06	2.90143e+07	-4.32342e+06	
38690	-0.497744	-0.449857	0.732973	0.0167938	0.142287	0.0295521	-1.35758e+06	4.83222e+07	-1.63235e+06	
38721	-0.497016	-0.442088	0.73497	0.0157756	0.178529	0.0283278	1.09046e+06	1.16331e+07	2.99109e+06	
38750	-0.497994	-0.471623	0.735613	0.0162663	0.183764	0.0296738	-1.46771e+06	-4.43134e+07	963477	
38780	-0.497351	-0.442182	0.732852	0.0156499	0.165152	0.0300784	966490	4.4243e+07	-4.14861e+06	
38810	-0.495923	-0.371987	0.732733	0.0160268	0.182407	0.0284605	2.14838e+06	1.05659e+08	-179365	
38901	-0.493387	-0.405164	0.731977	-0.0624216	0.0312544	-5.51105e-10	2.64333e+06	4.42557e+07	4.30664e+06	
38930	-0.49478	-0.43404	0.732194	-0.0613907	0.0485141	0.00167959	-2.10908e+06	-4.37331e+07	329568	
38961	-0.49478	-0.43404	0.732194	-0.0641114	-0.00790155	0.00210473	-2.10908e+06	-4.37331e+07	329568	
38990	-0.494331	-0.437054	0.728276	-0.0651871	-0.0302054	0.00227281	681828	-4.5785e+06	-5.95178e+06	
39020	-0.494901	-0.442723	0.7294	-0.0645939	-0.0341887	-0.00290524	-867161	-8.61865e+06	1.70905e+06	
39050	-0.494901	-0.442723	0.7294	-0.0661287	-0.0494437	0.000119777	-867161	-8.61865e+06	1.70905e+06	
39080	-0.493932	-0.443557	0.729507	-0.0667791	-0.0559077	0.00140156	1.47828e+06	-1.27245e+06	163007	
39141	-0.505296	-0.465831	0.750718	0.0584951	-0.0647598	0.00172432	-1.89674e+07	-4.13184e+07	3.04262e+07	
39230	-0.502874	-0.473737	0.747378	-0.0463992	0.0232547	-4.93214e-10	3.26631e+06	-8.65868e+06	-4.68225e+06	
39260	-0.511941	-0.416937	0.754014	-0.0444394	0.0180595	-0.00280935	-1.39625e+07	8.74598e+07	1.02182e+07	
39290	-0.511941	-0.416937	0.754014	-0.0653832	0.149249	0.0125179	-1.39625e+07	8.74598e+07	1.02182e+07	
39381	-0.512629	-0.451194	0.758095	-0.0397782	0.0199151	7.40765e-10	-4.24253e+06	-1.89797e+07	1.55322e+06	
39441	-0.514173	-0.453342	0.758405	-0.0365443	0.0182873	5.08889e-11	-1.34907e+06	1.64503e+07	-80566.2	
39470	-0.514683	-0.458022	0.757283	-0.0373942	0.0286509	-5.07566e-05	-793879	-7.28304e+06	-1.74617e+06	
39500	-0.516576	-0.468732	0.76158	-0.0375847	0.026903	-0.000469838	-2.95222e+06	-1.67034e+07	6.70165e+06	
39680	-0.519907	-0.448839	0.761002	-0.0331985	0.0166256	2.93139e-09	-5.2024e+06	3.10615e+07	-902767	
39711	-0.519907	-0.448839	0.761002	-0.0637886	0.199267	-0.00530827	-5.2024e+06	3.10615e+07	-902767	
39740	-0.519907	-0.448839	0.761002	-0.0989048	0.408932	-0.0114019	-5.2024e+06	3.10615e+07	-902767	
39771	-0.527226	-0.454519	0.769588	-0.100153	0.416387	-0.0116186	1.98399e+06	-2.30812e+07	-394633	
39800	-0.5249	-0.46308	0.770643	-0.0991416	0.404616	-0.0118199	3.68159e+06	-1.35492e+07	1.66952e+06	
39831	-0.528107	-0.454855	0.770135	-0.0980371	0.400551	-0.011319	-6.29593e+06	9.52542e+06	-86319.5	
39860	-0.524061	-0.439382	0.76966	-0.100681	0.404552	-0.0113553	6.42457e+06	2.45664e+07	-754119	
39890	-0.524061	-0.439382	0.76966	-0.0922009	0.436979	-0.0123507	6.42457e+06	2.45664e+07	-754119	
39920	-0.524794	-0.431429	0.767941	-0.0866116	0.458352	-0.0130068	-1.16715e+06	1.2656e+07	-2.73526e+06	
39980	-0.493706	-0.438327	0.740406	-0.021869	0.0109074	1.52506e-09	4.64539e+07	-5.35241e+06	-4.50584e+07	
40010	-0.493706	-0.438327	0.740406	0.0715035	0.000149053	-0.0905674	4.64539e+07	-5.35241e+06	-4.50584e+07	
40040	-0.493706	-0.438327	0.740406	0.206684	-0.0154265	-0.221687	4.64539e+07	-5.35241e+06	-4.50584e+07	
40070	-0.538278	-0.472694	0.789034	0.224801	-0.0175139	-0.23926	-7.15195e+07	-5.51454e+07	7.80261e+07	
40100	-0.524565	-0.47589	0.788647	0.171162	-0.0588729	-0.180741	2.20232e+07	-5.13223e+06	-621916	
40130	-0.524565	-0.47589	0.788647	0.2075	-0.0673411	-0.181767	2.20232e+07	-5.13223e+06	-621916	
40160	-0.524565	-0.47589	0.788647	0.263659	-0.0804283	-0.183353	2.20232e+07	-5.13223e+06	-621916	
40190	-0.524565	-0.47589	0.788647	0.339639	-0.0981345	-0.185498	2.20232e+07	-5.13223e+06	-621916	
40220	-0.524565	-0.47589	0.788647	0.43544	-0.12046	-0.188204	2.20232e+07	-5.13223e+06	-621916	
40280	-0.556397	-0.435338	0.784079	-0.0161022	0.00807427	-3.74589e-10	-5.15616e+07	6.56865e+07	-7.39896e+06	
40310	-0.490343	-0.431019	0.760533	-0.0578671	0.0612803	-0.00599316	1.07186e+08	7.00862e+06	-3.82078e+07	
40370	-0.492082	-0.426971	0.764126	-0.0147095	0.00737766	3.95292e-10	1.24438e+07	-1.32468e+07	1.67854e+06	
40401	-0.492082	-0.426971	0.764126	0.00880914	-0.0176587	0.00317244	1.24438e+07	-1.32468e+07	1.67854e+06	
40430	-0.492802	-0.424906	0.761697	0.0185153	-0.0279912	0.0044817	-1.17471e+06	3.37165e+06	-3.96436e+06	
40461	-0.492802	-0.424906	0.761697	0.0165065	-0.0222257	-0.00229736	-1.17471e+06	3.37165e+06	-3.96436e+06	
40490	-0.594554	-0.455307	0.820416	0.0156255	-0.019697	-0.00527063	-1.66611e+08	-4.97797e+07	9.61471e+07	
40521	-0.594554	-0.455307	0.820416	-0.264282	-0.103327	0.156256	-1.66611e+08	-4.97797e+07	9.61471e+07	
40550	-0.608292	-0.479118	0.826892	-0.32926	-0.122741	0.193754	-2.25747e+07	-3.91266e+07	1.06416e+07	
40581	-0.608292	-0.479118	0.826892	-0.359059	-0.174388	0.207801	-2.25747e+07	-3.91266e+07	1.06416e+07	
40610	-0.608292	-0.479118	0.826892	-0.408497	-0.260075	0.231106	-2.25747e+07	-3.91266e+07	1.06416e+07	
40640	-0.608292	-0.479118	0.826892	-0.478253	-0.380976	0.263988	-2.25747e+07	-3.91266e+07	1.06416e+07	
40670	-0.608292	-0.479118	0.826892	-0.568326	-0.537091	0.306448	-2.25747e+07	-3.91266e+07	1.06416e+07	
40700	-0.608292	-0.479118	0.826892	-0.678716	-0.728421	0.358486	-2.25747e+07	-3.91266e+07	1.06416e+07	
40730	-0.608292	-0.479118	0.826892	-0.809424	-0.954964	0.420101	-2.25747e+07	-3.91266e+07	1.06416e+07	
40760	-0.65956	-0.487132	0.853647	-0.822969	-0.97844	0.426486	-8.50921e+07	-1.33019e+07	4.44072e+07	
40790	-0.65956	-0.487132	0.853647	-0.950607	-0.998392	0.493096	-8.50921e+07	-1.33019e+07	4.44072e+07	
40820	-0.661192	-0.471452	0.858588	-1.00677	-1.00717	0.522405	-2.71566e+06	2.60994e+07	8.22269e+06	
40850	-0.661192	-0.471452	0.858588	-1.011	-0.966457	0.535233	-2.71566e+06	2.60994e+07	8.22269e+06	
40880	-0.652038	-0.471343	0.846332	-1.01304	-0.946882	0.5414	1.52788e+07	181566	-2.04555e+07	
40941	-0.644003	-0.46021	0.847245	-0.0252909	0.00494836	3.53836e-10	1.34412e+07	1.86232e+07	1.52646e+06	
40970	-0.644003	-0.46021	0.847245	0.00293567	0.0440571	0.00320556	1.34412e+07	1.86232e+07	1.52646e+06	
41000	-0.644003	-0.46021	0.847245	0.0432594	0.0999267	0.00778492	1.34412e+07	1.86232e+07	1.52646e+06	
41030	-0.644003	-0.46021	0.847245	0.0956802	0.172557	0.0137381	1.34412e+07	1.86232e+07	1.52646e+06	
41060	-0.644003	-0.46021	0.847245	0.160198	0.261949	0.0210651	1.34412e+07	1.86232e+07	1.52646e+06	
41091	-0.644003	-0.46021	0.847245	0.237216	0.36866	0.0298117	1.34412e+07	1.86232e+07	1.52646e+06	
41120	-0.710056	-0.482164	0.87995	0.241652	0.374805	0.0303154	2.20041e+07	-1.68941e+06	2.40484e+07	
41150	-0.710056	-0.482164	0.87995	0.268717	0.372727	0.0598949	2.20041e+07	-1.68941e+06	2.40484e+07	
41180	-0.710056	-0.482164	0.87995	0.315586	0.369129	0.111118	2.20041e+07	-1.68941e+06	2.40484e+07	
41211	-0.710056	-0.482164	0.87995	0.382259	0.36401	0.183985	2.20041e+07	-1.68941e+06	2.40484e+07	
41240	-0.718001	-0.492625	0.883275	0.3915	0.3633	0.194085	-1.35039e+07	-1.77784e+07	5.6516e+06	
41331	-0.753119	-0.491155	0.910921	-0.0284449	-0.0006166	2.44282e-10	1.09927e+06	5.55632e+06	892822	
41360	-0.752172	-0.495505	0.912952	-0.0279502	0.00188374	0.00040177	1.6178e+06	-7.43605e+06	3.47249e+06	
41390	-0.752172	-0.495505	0.912952	-0.0257662	-0.00815492	0.00508964	1.6178e+06	-7.43605e+06	3.47249e+06	
41420	-0.779636	-0.496789	0.939062	-0.0250867	-0.0112781	0.00654809	-4.70851e+07	-2.20123e+06	4.47648e+07	
41450	-0.779724	-0.502713	0.940061	-0.0561629	-0.0127309	0.0360928	-151609	-1.01665e+07	1.71477e+06	
41481	-0.77398	-0.494799	0.940378	-0.0561992	-0.0151708	0.0365044	2.7188e+06	6.13514e+06	2.09719e+06	
41510	-0.77398	-0.494799	0.940378	-0.0531814	-0.00836083	0.0388323	2.7188e+06	6.13514e+06	2.09719e+06	
41541	-0.780056	-0.49147	0.936335	-0.0516317	-0.00486381	0.0400277	-1.04754e+07	5.73819e+06	-6.9707e+06	
41570	-0.780056	-0.49147	0.936335	-0.0667162	0.00339918	0.0299899	-1.04754e+07	5.73819e+06	-6.9707e+06	
41600	-0.780815	-0.496153	0.938009	-0.0730015	0.0068421	0.0258074	-1.31212e+06	-8.09605e+06	2.8941e+06	
41630	-0.780655	-0.497845	0.937697	-0.0739068	0.00125582	0.0278044	276421	-2.92882e+06	-539782	
41660	-0.779612	-0.49477	0.940447	-0.0737576	-0.000325738	0.0275129	1.80917e+06	5.33173e+06	4.76802e+06	
41690	-0.779438	-0.498228	0.942891	-0.0735405	0.000314069	0.028085	302880	-6.00953e+06	4.24809e+06	
41751	-0.779798	-0.503583	0.94023	-0.0304511	-0.00391664	3.29907e-10	-626254	-9.31645e+06	-4.63056e+06	
41780	-0.779798	-0.503583	0.94023	-0.0317474	-0.0232017	-0.00958525	-626254	-9.31645e+06	-4.63056e+06	
41811	-0.762603	-0.496505	0.924074	-0.0318789	-0.0251581	-0.0105577	3.00496e+07	1.23697e+07	-2.82335e+07	
41840	-0.755031	-0.490434	0.927072	-0.0165536	-0.0188496	-0.0249568	1.32444e+07	1.06188e+07	5.2437e+06	
41871	-0.755031	-0.490434	0.927072	0.00251828	-0.00355852	-0.0174058	1.32444e+07	1.06188e+07	5.2437e+06	
41900	-0.758735	-0.495804	0.92736	0.0140409	0.00567982	-0.0128438	-6.4951e+06	-9.41443e+06	505671	
41931	-0.798125	-0.508	0.975828	0.00936442	-0.00109857	-0.0124797	-6.91751e+07	-2.14186e+07	8.51193e+07	
41960	-0.798125	-0.508	0.975828	-0.100624	-0.0351541	0.12286	-6.91751e+07	-2.14186e+07	8.51193e+07	
41990	-0.793228	-0.498243	0.978648	-0.154581	-0.0518606	0.189253	8.62283e+06	1.71824e+07	4.96505e+06	
42020	-0.800872	-0.50102	0.97973	-0.153029	-0.0487677	0.190147	-1.3493e+07	-4.90234e+06	1.91125e+06	
42050	-0.800872	-0.50102	0.97973	-0.167601	-0.0540623	0.192211	-1.3493e+07	-4.90234e+06	1.91125e+06	
42080	-0.800872	-0.50102	0.97973	-0.194317	-0.0637689	0.195995	-1.3493e+07	-4.90234e+06	1.91125e+06	
42110	-0.800872	-0.50102	0.97973	-0.233177	-0.0778876	0.2015	-1.3493e+07	-4.90234e+06	1.91125e+06	
42140	-0.795623	-0.496071	0.972666	-0.23682	-0.0792112	0.202016	9.3173e+06	8.78541e+06	-1.25397e+07	
42170	-0.78874	-0.485214	0.971512	-0.235702	-0.078157	0.200511	7.97067e+06	2.36071e+07	-7.13231e+06	
42200	-0.78874	-0.485214	0.971512	-0.227572	-0.0540778	0.193236	7.97067e+06	2.36071e+07	-7.13231e+06	
42230	-0.792256	-0.491291	0.968593	-0.221833	-0.0370807	0.188101	-6.26359e+06	-1.08244e+07	-5.19917e+06	
42260	-0.784237	-0.493459	0.967098	-0.22484	-0.0422764	0.185605	1.4311e+07	-3.87004e+06	-2.66767e+06	
42290	-0.771694	-0.488292	0.982068	-0.219258	-0.0437857	0.184565	2.24191e+07	9.23609e+06	2.67562e+07	
42320	-0.771694	-0.488292	0.982068	-0.190338	-0.0318712	0.21908	2.24191e+07	9.23609e+06	2.67562e+07	
42350	-0.770128	-0.490258	0.984704	-0.177559	-0.0266066	0.234331	2.80484e+06	-3.52336e+06	4.72368e+06	
42380	-0.771694	-0.487918	0.981034	-0.175455	-0.0292491	0.237874	-2.80877e+06	4.19849e+06	-6.58356e+06	
42410	-0.801967	-0.502681	0.976918	-0.176467	-0.0277376	0.235504	-5.44186e+07	-2.65378e+07	-7.40002e+06	
42471	-0.793034	-0.497163	0.983796	-0.0325287	0.00130247	2.32072e-10	1.6088e+07	9.93786e+06	1.23889e+07	
42500	-0.790128	-0.487324	0.981902	-0.0219105	0.00786147	0.00817669	5.24388e+06	1.77532e+07	-3.41839e+06	
42531	-0.790128	-0.487324	0.981902	-0.0135728	0.0360891	0.00274145	5.24388e+06	1.77532e+07	-3.41839e+06	
42560	-0.790128	-0.487324	0.981902	-0.000672845	0.079762	-0.00566779	5.24388e+06	1.77532e+07	-3.41839e+06	
42620	-0.797703	-0.498515	0.975904	-0.0303613	-0.00158902	4.94916e-10	-1.37318e+07	-2.02878e+07	-1.08739e+07	
42650	-0.788801	-0.486708	0.987298	-0.0340689	-0.00706671	-0.00293594	1.61852e+07	2.14674e+07	2.0717e+07	
42680	-0.792265	-0.487556	0.985697	-0.0277567	0.00130558	0.00514369	-6.30639e+06	-1.54370e+06	-2.91414e+06	
42740	-0.792735	-0.490025	0.990523	-0.0321188	0.00234332	3.27684e-10	-856019	-4.50272e+06	8.80278e+06	
42771	-0.812034	-0.492751	0.994672	-0.0326068	-0.000223234	0.00501758	-3.52735e+07	-4.98364e+06	7.58317e+06	
42800	-0.804931	-0.496697	1.00839	-0.0410724	-0.00141931	0.00683754	1.30059e+07	-7.22517e+06	2.5127e+07	
42831	-0.804931	-0.496697	1.00839	-0.0258555	-0.00987275	0.0362361	1.30059e+07	-7.22517e+06	2.5127e+07	
42860	-0.809076	-0.501767	1.00518	-0.0196127	-0.0133408	0.048297	-7.60884e+06	-9.30624e+06	-5.90357e+06	
42920	-0.809405	-0.502255	1.00526	-0.0306961	-0.000726086	2.76541e-10	-604681	-897942	152798	
42980	-0.808431	-0.497421	1.00779	-0.0321998	0.00229375	3.20068e-10	-4.90327e+06	1.49338e+07	3.36618e+06	
43010	-0.808431	-0.497421	1.00779	-0.0417612	0.0314146	0.00656405	-4.90327e+06	1.49338e+07	3.36618e+06	
43070	-0.801662	-0.494887	1.00972	-0.0325757	-0.001631	4.27855e-10	1.25379e+07	4.69329e+06	3.56484e+06	
43100	-0.80093	-0.498875	1.00833	-0.0246768	0.00132577	0.00224585	1.35744e+06	-7.40148e+06	-2.578e+06	
43130	-0.801241	-0.496778	1.00909	-0.0236587	-0.00422534	0.000312344	-576927	3.89711e+06	1.41030e+06	
43160	-0.799481	-0.501619	1.00862	-0.0240049	-0.00188707	0.00115853	3.27601e+06	-9.0102e+06	-872516	
43190	-0.799846	-0.500518	1.0087	-0.0224324	-0.00621196	0.000739719	-681372	2.0521e+06	143913	
43220	-0.79883	-0.503099	1.00732	-0.0226573	-0.00553477	0.000787211	1.89772e+06	-4.81829e+06	-2.57516e+06	
43250	-0.801178	-0.496107	1.00904	-0.0217464	-0.00784755	-0.000448865	-4.3898e+06	1.30689e+07	3.21875e+06	
43280	-0.793583	-0.502483	1.01006	-0.0243802	-6.23372e-06	0.00148239	1.42137e+07	-1.19306e+07	1.91318e+06	
43310	-0.79221	-0.504376	1.00972	-0.0218218	-0.00215374	0.00182676	2.57427e+06	-3.55027e+06	-641296	
43341	-0.79221	-0.504376	1.00972	-0.0189643	-0.00609454	0.00111492	2.57427e+06	-3.55027e+06	-641296	
43370	-0.791249	-0.502679	1.01221	-0.0169564	-0.00886375	0.000614711	1.80584e+06	3.18791e+06	4.68581e+06	
43401	-0.784889	-0.515816	1.01088	-0.0157645	-0.00675973	0.00370735	1.19682e+07	-2.47212e+07	-2.50573e+06	
43430	-0.772518	-0.514584	0.993072	-0.00858362	-0.0215924	0.00220391	2.33116e+07	2.32197e+06	-3.35612e+07	
43460	-0.772517	-0.514466	0.992707	-0.00508688	-0.0212441	-0.00283028	2110.38	223612	-688864	
43490	-0.772517	-0.514466	0.992707	-0.00508466	-0.0210094	-0.00355358	2110.38	223612	-688864	
43520	-0.772517	-0.514466	0.992707	-0.00508055	-0.0205733	-0.00489687	2110.38	223612	-688864	
43581	-0.792746	-0.49279	1.00302	-0.0316937	0.00202116	4.41067e-10	-3.83628e+07	4.1106e+07	1.95566e+07	
43610	-0.790386	-0.502595	1.00623	-0.0558623	0.027918	0.0123207	4.48377e+06	-1.86293e+07	6.09651e+06	
43670	-0.792998	-0.502104	1.01104	-0.0305118	-0.00244019	6.22112e-10	-4.97184e+06	933937	9.1497e+06	
43700	-0.792998	-0.502104	1.01104	-0.041251	-0.000422883	0.0197633	-4.97184e+06	933937	9.1497e+06	
43730	-0.673863	-0.471891	0.922118	-0.0437867	5.34249e-05	0.0244297	2.27647e+08	5.77328e+07	-1.69905e+08	
43760	-0.664053	-0.470628	0.924486	0.154266	0.050281	-0.123388	1.87607e+07	2.41548e+06	4.52871e+06	
43820	-0.662015	-0.473208	0.923494	-0.03208	0.00274748	5.34617e-10	3.9057e+06	-4.94455e+06	-1.90136e+06	
43850	-0.772457	-0.482709	1.01041	-0.0319628	0.00259914	-5.70402e-05	-2.12352e+08	-1.82689e+07	1.67117e+08	
43880	-0.771324	-0.480337	1.00969	-0.11478	-0.00452575	0.0651187	2.18025e+06	4.56561e+06	-1.39036e+06	
43971	-0.771069	-0.478003	1.00999	-0.0289887	-0.00400895	4.69039e-10	4.66648e+06	4.46874e+06	3.99812e+06	
44000	-0.771069	-0.478003	1.00999	-0.0197491	0.00483915	0.00791628	4.66648e+06	4.46874e+06	3.99812e+06	
44030	-0.771069	-0.478003	1.00999	-0.00630962	0.0177091	0.0194309	4.66648e+06	4.46874e+06	3.99812e+06	
44060	-0.771069	-0.478003	1.00999	0.0113297	0.034601	0.0345438	4.66648e+06	4.46874e+06	3.99812e+06	
44090	-0.768318	-0.477502	1.00609	0.0153895	0.0384888	0.0380221	5.34033e+06	972818	-7.58456e+06	
44150	-0.767613	-0.483413	1.01043	-0.0317321	0.00218519	2.61423e-10	1.37305e+06	-1.15054e+07	8.46397e+06	
44181	-0.768045	-0.473291	1.00709	-0.0309906	-0.0040277	0.00457055	-842510	1.9742e+07	-6.52067e+06	
44210	-0.772067	-0.476578	1.01062	-0.0312687	0.00248716	0.00241873	-7.85638e+06	-6.42171e+06	6.90439e+06	
44241	-0.770397	-0.479378	1.01293	-0.0366896	-0.00194382	0.00718275	3.26333e+06	-5.47505e+06	4.50631e+06	
44300	-0.770338	-0.484231	1.01189	-0.0303728	-0.00274971	4.79979e-10	116650	-9.50584e+06	-2.03385e+06	
44360	-0.771497	-0.480159	1.01214	-0.0302607	-4.64827e-05	2.90163e-10	-2.27761e+06	7.99996e+06	490380	
44390	-0.769245	-0.478088	1.00957	-0.0312173	0.0033135	0.00020596	4.4355e+06	4.07906e+06	-5.06419e+06	
44420	-0.769245	-0.478088	1.00957	-0.0253625	0.00869786	-0.00647877	4.4355e+06	4.07906e+06	-5.06419e+06	
44450	-0.771108	-0.486725	1.01379	-0.022302	0.0115124	-0.00997306	-3.67751e+06	-1.7047e+07	8.32119e+06	
44480	-0.771108	-0.486725	1.01379	-0.0281492	-0.0155923	0.00325763	-3.67751e+06	-1.7047e+07	8.32119e+06	
44510	-0.771108	-0.486725	1.01379	-0.0373062	-0.0580392	0.0239774	-3.67751e+06	-1.7047e+07	8.32119e+06	
44540	-0.778542	-0.48539	1.00808	-0.0380785	-0.0616191	0.0257248	-1.47429e+07	2.64775e+06	-1.13067e+07	
44571	-0.778542	-0.48539	1.00808	-0.0548855	-0.0586006	0.0128352	-1.47429e+07	2.64775e+06	-1.13067e+07	
44600	-0.781462	-0.474204	1.00186	-0.0610775	-0.0574886	0.00808638	-5.80456e+06	2.22359e+07	-1.23719e+07	
44630	-0.780916	-0.481185	1.00714	-0.0626447	-0.0514849	0.00474597	1.08615e+06	-1.38990e+07	1.05075e+07	
44660	-0.780989	-0.474246	1.00797	-0.0621885	-0.0573225	0.00915914	-144426	1.38313e+07	1.6596e+06	
44691	-0.778843	-0.480897	1.00266	-0.0622709	-0.0494387	0.0101051	4.28309e+06	-1.32729e+07	-1.05905e+07	
44720	-0.778843	-0.480897	1.00266	-0.0561032	-0.0685517	-0.0051452	4.28309e+06	-1.32729e+07	-1.05905e+07	
44751	-0.777238	-0.473439	1.00018	-0.0530194	-0.0781082	-0.0127704	3.2094e+06	1.49198e+07	-4.96576e+06	
44780	-0.776493	-0.479514	1.00241	-0.0503235	-0.0655755	-0.0169416	1.4929e+06	-1.21666e+07	4.46323e+06	
44811	-0.789656	-0.477685	1.00973	-0.049159	-0.0750655	-0.0134603	-2.64022e+07	3.66865e+06	1.46739e+07	
44840	-0.789656	-0.477685	1.00973	-0.0927226	-0.0690122	0.0107516	-2.64022e+07	3.66865e+06	1.46739e+07	
44870	-0.78932	-0.475061	1.00955	-0.113316	-0.0661506	0.0221972	677419	5.27654e+06	-357345	
44900	-0.78932	-0.475061	1.00955	-0.112178	-0.057286	0.0215969	677419	5.27654e+06	-357345	
44930	-0.78932	-0.475061	1.00955	-0.11043	-0.0436726	0.0206749	677419	5.27654e+06	-357345	
44960	-0.780495	-0.473049	1.00687	-0.110207	-0.0419313	0.020557	-3.36863e+06	1.00565e+07	-1.19905e+07	
44990	-0.780495	-0.473049	1.00687	-0.11435	-0.0295618	0.00580873	-3.36863e+06	1.00565e+07	-1.19905e+07	
45020	-0.780495	-0.473049	1.00687	-0.121526	-0.00814142	-0.019731	-3.36863e+06	1.00565e+07	-1.19905e+07	
45051	-0.780495	-0.473049	1.00687	-0.131834	0.0226315	-0.0564218	-3.36863e+06	1.00565e+07	-1.19905e+07	
45081	-0.780157	-0.475419	1.0111	-0.132642	0.0250451	-0.0592996	685963	-4.81631e+06	8.58424e+06	
45111	-0.780157	-0.475419	1.0111	-0.13186	0.0195545	-0.0495135	685963	-4.81631e+06	8.58424e+06	
45140	-0.780157	-0.475419	1.0111	-0.130481	0.00987368	-0.0322592	685963	-4.81631e+06	8.58424e+06	
45170	-0.787029	-0.483982	1.01199	-0.130255	0.00828429	-0.0294264	-1.40141e+07	-1.74615e+07	1.8273e+06	
45230	-0.78331	-0.479834	1.01001	-0.0319044	0.00260208	2.84017e-10	7.59701e+06	8.47345e+06	-4.04049e+06	
45261	-0.782391	-0.472713	1.00965	-0.0298532	0.00488991	-0.00109093	1.8809e+06	1.45802e+07	-746219	
45320	-0.779443	-0.479039	1.00912	-0.0309521	-0.00130888	5.04987e-10	6.04432e+06	-1.29668e+07	-1.08038e+06	
45350	-0.778803	-0.478684	1.01068	-0.0256936	-0.01259	-0.000939929	1.31524e+06	728635	3.21009e+06	
45380	-0.780379	-0.475017	1.00878	-0.0250228	-0.0122184	0.000697216	-3.24354e+06	7.54594e+06	-3.92245e+06	
45410	-0.777718	-0.482237	1.00828	-0.0258013	-0.0104074	-0.000244173	5.48479e+06	-1.48831e+07	-1.02881e+06	
45440	-0.777718	-0.482237	1.00828	-0.0195486	-0.0273742	-0.00141701	5.48479e+06	-1.48831e+07	-1.02881e+06	
45470	-0.777718	-0.482237	1.00828	-0.00835961	-0.0577358	-0.00351578	5.48479e+06	-1.48831e+07	-1.02881e+06	
45500	-0.777718	-0.482237	1.00828	0.00776568	-0.101492	-0.00654047	5.48479e+06	-1.48831e+07	-1.02881e+06	
45530	-0.777718	-0.482237	1.00828	0.0288273	-0.158643	-0.0104911	5.48479e+06	-1.48831e+07	-1.02881e+06	
45560	-0.785678	-0.484293	1.01643	0.03146	-0.165787	-0.0109849	-1.65115e+07	-4.26436e+06	1.69125e+07	
45590	-0.785678	-0.484293	1.01643	0.00867413	-0.171672	0.0123544	-1.65115e+07	-4.26436e+06	1.69125e+07	
45621	-0.785678	-0.484293	1.01643	-0.0294674	-0.181523	0.0514223	-1.65115e+07	-4.26436e+06	1.69125e+07	
45650	-0.78693	-0.48038	1.0166	-0.0329348	-0.182418	0.054974	-2.60822e+06	8.1513e+06	341671	
45710	-0.787634	-0.477337	1.01886	-0.0316559	-0.00164945	3.83418e-11	-1.31888e+06	4.47267e+06	1.56989e+06	
45740	-0.787634	-0.477337	1.01886	-0.0328825	0.00251013	0.00146	-1.31888e+06	4.47267e+06	1.56989e+06	
45770	-0.786716	-0.479964	1.01765	-0.0334364	0.00438866	0.00211935	1.92273e+06	-5.50134e+06	-2.52951e+06	
45830	-0.784767	-0.48093	1.0173	-0.0332507	0.00149112	2.29649e-10	4.08684e+06	-2.02477e+06	-734843	
45860	-0.785871	-0.483186	1.01501	-0.0314116	0.000579973	-0.000330679	-2.32033e+06	-4.74048e+06	-4.80664e+06	
45890	-0.785871	-0.483186	1.01501	-0.034544	-0.00581968	-0.00681964	-2.32033e+06	-4.74048e+06	-4.80664e+06	
45920	-0.787207	-0.477187	1.01709	-0.0366323	-0.0100861	-0.0111456	-2.81324e+06	1.26325e+07	4.38303e+06	
45950	-0.787207	-0.477187	1.01709	-0.0416962	0.0126524	-0.00325616	-2.81324e+06	1.26325e+07	4.38303e+06	
45980	-0.787207	-0.477187	1.01709	-0.0492919	0.0467602	0.00857803	-2.81324e+06	1.26325e+07	4.38303e+06	
46010	-0.787207	-0.477187	1.01709	-0.0594196	0.0922372	0.024357	-2.81324e+06	1.26325e+07	4.38303e+06	
46040	-0.790785	-0.477105	1.02131	-0.0616983	0.10247	0.0279072	-7.57582e+06	174405	8.91684e+06	
46070	-0.786391	-0.482377	1.01763	-0.0630619	0.102501	0.0295122	9.32316e+06	-1.11872e+07	-7.80724e+06	
46100	-0.787178	-0.480461	1.0185	-0.0616635	0.100823	0.0283412	-1.67132e+06	4.07005e+06	1.84664e+06	
46130	-0.787178	-0.480461	1.0185	-0.0634183	0.105096	0.0302801	-1.67132e+06	4.07005e+06	1.84664e+06	
46160	-0.786273	-0.4821	1.0179	-0.0649225	0.108759	0.0319421	1.92535e+06	-3.48783e+06	-1.26461e+06	
46190	-0.78801	-0.4778	1.01828	-0.063594	0.106353	0.0310695	-3.70126e+06	9.16481e+06	813458	
46220	-0.788145	-0.478315	1.01855	-0.0653706	0.110752	0.03146	-289084	-1.09748e+06	569618	
46250	-0.784774	-0.486096	1.01808	-0.0655614	0.110028	0.0318359	7.20475e+06	-1.66301e+07	-1.00667e+06	
46310	-0.784812	-0.486412	1.01763	-0.0308199	0.000112282	2.52025e-10	-82977.7	-675091	-950454	
46370	-0.78187	-0.491673	1.01753	-0.0314678	0.00304425	2.39447e-10	7.84305e+06	-1.85532e+07	-1.88403e+06	
46400	-0.77983	-0.498382	1.01532	-0.0288796	-0.00307832	-0.000621731	4.39049e+06	-1.4439e+07	-4.74823e+06	
46430	-0.77983	-0.498382	1.01532	-0.0234793	-0.0208383	-0.00646206	4.39049e+06	-1.4439e+07	-4.74823e+06	
46461	-0.77983	-0.498382	1.01532	-0.0139959	-0.0520265	-0.0167182	4.39049e+06	-1.4439e+07	-4.74823e+06	
46491	-0.77983	-0.498382	1.01532	-0.00056096	-0.0962098	-0.0312478	4.39049e+06	-1.4439e+07	-4.74823e+06	
46520	-0.782183	-0.493197	1.01889	0.00101962	-0.101408	-0.0329572	-5.0899e+06	1.12154e+07	7.72479e+06	
46551	-0.782908	-0.492018	1.01646	-0.00172893	-0.0953516	-0.0287858	-1.56933e+06	2.55243e+06	-5.26759e+06	
46580	-0.780985	-0.496887	1.01897	-0.00201141	-0.0948921	-0.029734	4.17003e+06	-1.05602e+07	5.45162e+06	
46610	-0.783236	-0.49144	1.01954	0.000115307	-0.100278	-0.0269536	-4.88733e+06	1.18247e+07	1.23391e+06	
46670	-0.785558	-0.484365	1.02103	-0.0329463	0.00262363	3.64723e-10	-1.42837e+06	7.82345e+06	8.67698e+06	
46701	-0.787403	-0.482327	1.02105	-0.034189	0.00943003	0.00754897	-4.01861e+06	4.43814e+06	41587.9	
46730	-0.784903	-0.489316	1.01891	-0.0350329	0.010362	0.0075577	1.90055e+06	-1.36458e+07	-4.41938e+06	
46880	-0.787547	-0.484055	1.01756	-0.0315566	0.00116743	2.96962e-10	-5.97545e+06	7.28566e+06	-1.45165e+06	
46910	-0.787547	-0.484055	1.01756	-0.0426709	0.0147188	-0.00270007	-5.97545e+06	7.28566e+06	-1.45165e+06	
46941	-0.787547	-0.484055	1.01756	-0.0593424	0.0350457	-0.00675019	-5.97545e+06	7.28566e+06	-1.45165e+06	
47001	-0.786801	-0.483072	1.01717	-0.0309973	-0.000332096	2.84028e-10	-2.93846e+06	-5.24606e+06	-2.15875e+06	
47030	-0.784166	-0.491293	1.01674	-0.0332012	-0.00426664	-0.00161906	5.82008e+06	-1.81625e+07	-959313	
47091	-0.784555	-0.49048	1.01711	-0.0294414	-0.00370622	3.68373e-10	-859511	1.79984e+06	835389	
47120	-0.783112	-0.492587	1.01721	-0.0296993	-0.00316627	0.000250617	3.20106e+06	-4.67633e+06	205040	
47180	-0.786398	-0.481734	1.0194	-0.0321353	6.9322e-05	3.34084e-10	-7.30256e+06	2.41238e+07	4.8759e+06	
47211	-0.787149	-0.482883	1.01814	-0.0378313	0.0188859	0.0038032	-1.67229e+06	-2.55789e+06	-2.81563e+06	
47240	-0.785379	-0.489797	1.01689	-0.0381323	0.0184255	0.00329639	3.94767e+06	-1.54262e+07	-2.77203e+06	
47270	-0.786999	-0.485439	1.0173	-0.0360006	0.0100953	0.00179949	-3.61631e+06	9.73154e+06	905792	
47330	-0.787437	-0.48441	1.0174	-0.0294247	-0.0269027	0.00443534	-979981	2.29932e+06	234013	
47361	-0.788149	-0.480719	1.01904	-0.0299245	-0.0257301	0.00455469	-1.5957e+06	8.27252e+06	3.67027e+06	
47421	-0.788676	-0.480533	1.01799	-0.0307031	-0.00288032	3.5982e-10	-1.18225e+06	417946	-2.3555e+06	
47450	-0.788676	-0.480533	1.01799	-0.0333632	-0.00193994	-0.00529988	-1.18225e+06	417946	-2.3555e+06	
47480	-0.787968	-0.482299	1.01893	-0.0341789	-0.00165156	-0.00692518	1.59368e+06	-3.97727e+06	2.11553e+06	
47510	-0.788042	-0.48517	1.01744	-0.0329359	-0.00475383	-0.00527507	-165471	-6.47351e+06	-3.35435e+06	
47540	-0.788219	-0.482534	1.01747	-0.0329855	-0.00669588	-0.00628137	-400382	5.95587e+06	58069.1	
47600	-0.788342	-0.482786	1.01668	-0.030237	-0.00347515	2.18041e-10	-772056	920610	-1.96428e+06	
47631	-0.784991	-0.483184	1.01776	-0.0307002	-0.00292278	-0.00117857	7.59711e+06	-903035	2.46158e+06	
47660	-0.786304	-0.48532	1.01763	-0.0291048	-0.00311242	-0.000661634	-2.98089e+06	-4.84979e+06	-286563	
47691	-0.786304	-0.48532	1.01763	-0.032503	-0.00864117	-0.000988316	-2.98089e+06	-4.84979e+06	-286563	
47720	-0.785719	-0.485467	1.01784	-0.0348281	-0.012424	-0.00121184	1.33105e+06	-335040	472213	
47780	-0.788522	-0.479447	1.01805	-0.0314449	0.00241765	1.33021e-10	-4.18133e+06	1.14723e+07	8074.95	
47810	-0.789181	-0.477084	1.0185	-0.033201	0.007236	3.39161e-06	-1.50674e+06	5.39796e+06	1.02272e+06	
47870	-0.788334	-0.482045	1.01714	-0.0303298	-0.000653709	5.2165e-10	1.93781e+06	-1.13514e+07	-3.11319e+06	
47900	-0.788334	-0.482045	1.01714	-0.0264348	-0.0234701	-0.00625751	1.93781e+06	-1.13514e+07	-3.11319e+06	
47930	-0.785685	-0.483043	1.0203	-0.0253884	-0.0295998	-0.00793863	6.08128e+06	-2.29162e+06	7.26952e+06	
47960	-0.784988	-0.483894	1.02015	-0.021922	-0.0309061	-0.003795	1.60366e+06	-1.95545e+06	-352968	
47990	-0.787526	-0.490011	1.02029	-0.0218739	-0.0309647	-0.00380559	-5.84539e+06	-1.40859e+07	328152	
48050	-0.787862	-0.487375	1.0185	-0.0328168	0.0018796	2.25542e-10	-776030	6.07747e+06	-4.13052e+06	
48080	-0.788155	-0.486046	1.02071	-0.0334221	0.00662002	-0.00322181	-675718	3.0689e+06	5.10552e+06	
48110	-0.788155	-0.486046	1.02071	-0.0345573	0.0117758	0.00535547	-675718	3.0689e+06	5.10552e+06	
48140	-0.788155	-0.486046	1.02071	-0.0363006	0.0196935	0.0185277	-675718	3.0689e+06	5.10552e+06	
48170	-0.788155	-0.486046	1.02071	-0.0386521	0.0303733	0.0362949	-675718	3.0689e+06	5.10552e+06	
48200	-0.787305	-0.484937	1.02029	-0.038794	0.0310178	0.0373671	3.61101e+06	-3.95126e+06	-1.36294e+06	
48231	-0.787305	-0.484937	1.02029	-0.0346775	0.0265134	0.0358133	3.61101e+06	-3.95126e+06	-1.36294e+06	
48260	-0.787305	-0.484937	1.02029	-0.0274193	0.0185713	0.0330738	3.61101e+06	-3.95126e+06	-1.36294e+06	
48290	-0.787305	-0.484937	1.02029	-0.0169113	0.00707318	0.0291076	3.61101e+06	-3.95126e+06	-1.36294e+06	
48320	-0.78898	-0.481248	1.01827	-0.0142031	0.00410974	0.0280854	-3.90631e+06	8.60439e+06	-4.70634e+06	
48350	-0.786859	-0.489807	1.01981	-0.0157265	0.00746545	0.02625	4.95454e+06	-1.99975e+07	3.60847e+06	
48411	-0.787622	-0.48771	1.02019	-0.0304633	-0.000352503	2.36463e-10	-1.78589e+06	4.90712e+06	888914	
48441	-0.787622	-0.48771	1.02019	-0.0341065	0.00965801	0.00181339	-1.78589e+06	4.90712e+06	888914	
48470	-0.787622	-0.48771	1.02019	-0.0393035	0.0239377	0.00440013	-1.78589e+06	4.90712e+06	888914	
48530	-0.788379	-0.479708	1.01805	-0.0454734	-0.0383054	0.00920026	-1.77716e+06	1.88045e+07	-5.03012e+06	
48561	-0.788379	-0.479708	1.01805	-0.0499519	0.00908183	-0.00347564	-1.77716e+06	1.88045e+07	-5.03012e+06	
48590	-0.788379	-0.479708	1.01805	-0.0559764	0.0728289	-0.0205277	-1.77716e+06	1.88045e+07	-5.03012e+06	
48620	-0.788379	-0.479708	1.01805	-0.0636005	0.1535	-0.042107	-1.77716e+06	1.88045e+07	-5.03012e+06	
48651	-0.788379	-0.479708	1.01805	-0.0728773	0.251659	-0.0683642	-1.77716e+06	1.88045e+07	-5.03012e+06	
48680	-0.788379	-0.479708	1.01805	-0.0837002	0.366178	-0.0989976	-1.77716e+06	1.88045e+07	-5.03012e+06	
48710	-0.788379	-0.479708	1.01805	-0.0961226	0.497622	-0.134158	-1.77716e+06	1.88045e+07	-5.03012e+06	
48740	-0.788379	-0.479708	1.01805	-0.110144	0.645989	-0.173846	-1.77716e+06	1.88045e+07	-5.03012e+06	
48800	-0.787068	-0.480903	1.01721	-0.0313358	-0.00324463	1.56645e-10	1.63841e+06	-4.6422e+06	-618088	
48831	-0.787068	-0.480903	1.01721	-0.0288782	-0.0102079	-0.000927131	1.63841e+06	-4.6422e+06	-618088	
48860	-0.787068	-0.480903	1.01721	-0.0249951	-0.0212099	-0.002392	1.63841e+06	-4.6422e+06	-618088	
48890	-0.787068	-0.480903	1.01721	-0.0196376	-0.0363899	-0.00441315	1.63841e+06	-4.6422e+06	-618088	
48920	-0.787068	-0.480903	1.01721	-0.0128054	-0.0557479	-0.00699057	1.63841e+06	-4.6422e+06	-618088	
