MS	x	y	z	vx	vy	vz	ax	ay	az	
6339	0.823518	0.522825	1.08184	0.000237494	0.00187104	7.49602e-11	-0.269254	0.681043	0.312334	
6400	0.821032	0.525689	1.07984	-0.000428748	0.000760272	1.31631e-10	-0.276682	0.68054	0.313407	
6429	0.821032	0.525689	1.07984	-0.000178748	0.00214322	1.18267e-10	-0.27633	0.680549	0.24639	
6460	0.821032	0.525689	1.07984	-0.00084599	0.00188132	9.94548e-11	-0.277193	0.6805	0.255012	
6549	0.822954	0.525987	1.07818	-0.00154019	1.3415e-05	1.95413e-10	-0.27666	0.682261	0.310179	
6669	0.819534	0.524006	1.07722	0.000308271	-0.00029765	9.45467e-11	-0.270074	0.688102	0.315156	
6700	0.819534	0.524006	1.07722	-0.000318658	-0.000135859	1.76836e-10	-0.280681	0.676841	0.280692	
6849	0.822173	0.521581	1.08211	-0.0011407	0.00115214	3.15332e-11	-0.277253	0.680839	0.262777	
6879	0.822173	0.521581	1.08211	-0.0002853	0.00107163	8.50223e-11	-0.277941	0.680162	0.236173	
6909	0.822173	0.521581	1.08211	0.000640507	0.00178601	5.5946e-11	-0.276237	0.680732	0.310811	
7089	0.821821	0.522332	1.08079	-0.0018395	0.000948362	1.50544e-10	-0.277535	0.68134	0.313632	
7449	0.817539	0.523176	1.07793	-0.000591837	0.000425997	8.53774e-11	-0.277226	0.680165	0.23716	
7479	0.817539	0.523176	1.07793	0.00111005	0.000305226	6.39103e-11	-0.277055	0.680817	0.236705	
7599	0.821814	0.521819	1.08016	-0.000880487	0.000625817	2.10503e-10	-0.27718	0.681815	0.305077	
7900	0.814897	0.52529	1.07916	-0.000757245	0.00126463	9.82713e-11	-0.277316	0.680443	0.297792	
8079	0.822541	0.52345	1.08191	-0.000158641	0.000539552	6.45139e-11	-0.277055	0.681092	0.307209	
8229	0.818618	0.523105	1.07941	-0.000878594	0.00168486	4.40423e-11	-0.205258	0.682193	0.293615	
8619	0.822186	0.520227	1.07632	-0.000479892	0.000634174	2.34465e-10	-0.27733	0.680579	0.325646	
8950	0.826993	0.522019	1.08006	6.94165e-05	0.00126571	1.31752e-10	-0.277441	0.681127	0.313695	
9129	0.820362	0.524666	1.07494	-0.000767252	0.000629899	1.5605e-10	-0.209057	0.681492	0.325105	
9249	0.825656	0.520998	1.08231	0.000239469	0.00192327	1.65508e-10	-0.219765	0.681764	0.239866	
10120	0.80784	0.526402	1.07635	-0.00042671	0.0016415	4.76146e-11	-0.276965	0.680293	0.226736	
10779	0.834083	0.515348	1.08113	-0.00136317	0.00108471	1.61178e-10	-0.277937	0.680279	0.233591	
10900	0.834316	0.514586	1.08232	-0.000153276	0.000574733	6.38986e-11	-0.275523	0.680993	0.236661	
11019	0.829673	0.513969	1.07961	-0.00151153	0.000412775	7.81077e-11	-0.277022	0.680174	0.23669	
11199	0.824427	0.513563	1.08412	-0.000270282	0.000822708	2.93095e-11	-0.275695	0.681203	0.325661	
11289	0.821686	0.51571	1.08409	0.000198265	0.000843551	9.89754e-11	-0.276852	0.680106	0.235656	
11499	0.827882	0.514323	1.08179	-0.000338351	0.000856295	8.47714e-11	-0.211363	0.681432	0.313968	
11649	0.82735	0.517944	1.08281	-0.000640215	0.00110217	1.24482e-10	-0.201663	0.682825	0.319184	
11680	0.82735	0.517944	1.08281	-0.00067725	0.000121982	2.33486e-11	-0.288012	0.680805	0.259429	
11709	0.82735	0.517944	1.08281	0.000661474	0.00092449	1.20394e-10	-0.280769	0.680546	0.308704	
11740	0.82735	0.517944	1.08281	0.000425478	0.000893215	5.71539e-11	-0.262599	0.680425	0.238141	
11979	0.829772	0.51477	1.08205	-6.02935e-05	0.000465861	6.51828e-11	-0.276923	0.680283	0.271595	
12099	0.831836	0.515025	1.08224	-0.000210484	6.798e-05	1.05379e-10	-0.280468	0.681002	0.270202	
12189	0.832684	0.513974	1.08373	-0.00122566	0.000636502	1.39919e-11	-0.275942	0.680164	0.233198	
12219	0.832684	0.513974	1.08373	-0.00207705	0.000139079	1.40899e-10	-0.276085	0.679457	0.234832	
12399	0.824224	0.525265	1.06952	-0.00105029	0.00151175	2.84017e-11	-0.277388	0.681065	0.236681	
12730	0.8093	0.527278	1.06576	-0.000773868	0.000501725	1.22317e-10	-0.278051	0.680751	0.313632	
12790	0.801971	0.531527	1.06909	0.000676284	1.36482e-06	3.54963e-11	-0.278738	0.680818	0.236642	
13149	0.810184	0.493456	1.061	0.000165662	0.00215061	8.19506e-11	-0.363009	0.680128	0.303521	
13539	0.826705	0.492808	1.07177	7.24825e-05	0.00105985	7.8269e-11	-0.271603	0.680408	0.237179	
13659	0.836951	0.494211	1.07052	-0.000404978	0.000659353	4.25922e-11	-0.276316	0.681536	0.236623	
14350	0.818884	0.502063	1.06794	0.000406245	0.000612177	7.85534e-11	-0.277993	0.681185	0.238041	
14529	0.821865	0.501871	1.06842	-0.000652014	0.00075126	5.57457e-11	-0.275305	0.680326	0.232274	
14589	0.821019	0.501793	1.06858	0.000276732	0.000692633	1.13271e-10	-0.290296	0.680306	0.269693	
14709	0.820118	0.501447	1.06872	-0.00162862	0.00169807	3.5729e-11	-0.277372	0.681813	0.396989	
14859	0.823333	0.502466	1.0688	0.000274462	0.000283805	1.50017e-10	-0.277142	0.681822	0.312535	
15009	0.821305	0.501848	1.06826	-0.000203969	-4.03432e-05	9.59651e-11	-0.258722	0.680874	0.319884	
15249	0.817843	0.50123	1.06997	-0.000352304	0.00148984	2.77935e-11	-0.276987	0.681248	0.231613	
15399	0.818214	0.503888	1.06923	0.00029163	0.00149664	2.12034e-11	-0.277311	0.679577	0.235593	
15459	0.821034	0.502453	1.06766	0.000256255	0.00094022	5.68253e-11	-0.277869	0.681042	0.236772	
15610	0.814771	0.509934	1.06396	-0.000984478	0.00119945	1.28506e-10	-0.276608	0.681761	0.237974	
15939	0.813391	0.509731	1.06432	-0.000588038	0.000746209	7.68111e-11	-0.277161	0.681762	0.320046	
16000	0.819221	0.508871	1.06399	0.000347899	0.0012737	9.66674e-11	-0.277026	0.680795	0.247865	
16149	0.816577	0.50815	1.06453	-0.00164319	0.00125824	1.4202e-11	-0.276425	0.680936	0.2367	
16659	0.811237	0.50968	1.06456	-0.00109046	0.000115139	5.51778e-11	-0.275606	0.681719	0.306543	
16779	0.81085	0.507847	1.0648	-0.00130656	0.000433171	7.08002e-11	-0.228748	0.681397	0.236001	
17079	0.814441	0.509281	1.06434	-0.00020704	0.00172512	1.49296e-10	-0.277014	0.681154	0.236978	
17199	0.813209	0.509148	1.06452	-0.000569048	0.00146556	9.24026e-11	-0.278089	0.681058	0.23693	
17289	0.813303	0.509169	1.06415	-0.00134555	0.00159855	3.01968e-11	-0.277419	0.679119	0.25164	
17619	0.815868	0.508074	1.06428	-0.000372826	0.000150266	1.10006e-10	-0.277699	0.679788	0.229179	
17679	0.819636	0.508613	1.06384	0.000416414	0.000668375	5.67413e-11	-0.284325	0.680943	0.236422	
17920	0.817845	0.508395	1.0641	3.40362e-05	-0.000469065	1.42778e-11	-0.28531	0.679629	0.237964	
18279	0.815061	0.509827	1.06404	0.000553771	0.000260946	1.06677e-10	-0.205489	0.680857	0.237059	
18400	0.818703	0.510413	1.06348	-0.000897068	0.000341453	4.26396e-11	-0.238629	0.681638	0.236886	
18880	0.815178	0.508244	1.06423	-0.000661943	0.000714178	2.12713e-10	-0.277094	0.681105	0.295435	
19059	0.813269	0.507544	1.0648	-0.000770866	4.64185e-05	1.40635e-10	-0.269529	0.680599	0.312521	
19239	0.817737	0.50818	1.06442	-0.00127941	-0.000256292	2.75523e-11	-0.277399	0.681475	0.306136	
19269	0.817737	0.50818	1.06442	-0.00114917	0.00146937	1.24461e-10	-0.276901	0.680072	0.296336	
19480	0.817759	0.510345	1.06389	-0.00132437	0.000845334	7.28244e-11	-0.286029	0.681129	0.303435	
19540	0.819151	0.510365	1.0638	-0.00151087	0.000419246	9.49517e-11	-0.262377	0.6803	0.226076	
19749	0.824853	0.509231	1.06351	-0.000977805	-6.12227e-05	1.11796e-10	-0.276542	0.681368	0.310543	
19809	0.822532	0.509021	1.06364	-0.000970912	0.00127201	9.28943e-12	-0.276288	0.681657	0.309648	
20379	0.823428	0.509099	1.06361	-0.000219538	0.0015509	1.49838e-10	-0.275972	0.681605	0.277477	
20559	0.817161	0.508039	1.0643	0.000405108	0.00077239	5.68769e-11	-0.277668	0.680586	0.236987	
20859	0.814633	0.510077	1.06455	0.000233181	0.00158928	1.01014e-10	-0.276468	0.681376	0.306103	
21399	0.825394	0.511452	1.06324	0.000231542	0.00106854	5.64487e-11	-0.275957	0.680577	0.313604	
21789	0.825754	0.511497	1.06336	-0.000926004	0.00107412	9.80359e-11	-0.276641	0.681577	0.326786	
21999	0.818307	0.508425	1.06442	-0.000827021	0.000826043	3.35197e-11	-0.277348	0.685403	0.223465	
22090	0.821166	0.508783	1.0641	-0.000113839	0.00115796	1.04335e-10	-0.271302	0.681859	0.316167	
22209	0.821387	0.508809	1.06409	0.00031449	0.000227093	2.63677e-10	-0.277714	0.681171	0.313901	
22479	0.818343	0.509802	1.06401	-0.000352946	0.000736785	1.2872e-10	-0.276874	0.680979	0.306477	
22569	0.819472	0.509951	1.06382	0.000206852	0.00102668	1.2333e-10	-0.278617	0.680952	0.293644	
22600	0.819472	0.509951	1.06382	-0.0005848	0.00081108	8.82569e-11	-0.277379	0.680093	0.29419	
22660	0.820342	0.510017	1.0638	-0.00100978	-0.000310287	9.65578e-11	-0.276687	0.680673	0.292599	
22689	0.820342	0.510017	1.0638	-0.00131484	5.22968e-05	4.58162e-11	-0.258039	0.68178	0.305442	
22749	0.817302	0.5097	1.06426	-0.000270706	-0.000463514	4.97663e-11	-0.275791	0.679769	0.236982	
23109	0.816356	0.51024	1.06407	-0.000267158	0.000889524	2.00407e-10	-0.204707	0.68326	0.392956	
23139	0.816356	0.51024	1.06407	0.000261664	0.000871128	5.81983e-11	-0.285962	0.681581	0.387988	
23350	0.814619	0.508048	1.06464	9.90908e-05	0.00102598	1.77038e-10	-0.277188	0.681734	0.347134	
23379	0.814619	0.508048	1.06464	-0.000896776	0.00120704	1.83901e-10	-0.276562	0.681905	0.383127	
23469	0.820735	0.508962	1.06411	-0.000838889	0.00108615	1.00627e-10	-0.277469	0.680366	0.239588	
23500	0.820735	0.508962	1.06411	-0.000681324	0.000560352	4.88198e-11	-0.276593	0.68008	0.271221	
23589	0.820734	0.509003	1.06416	-0.000151545	0.000878278	4.95741e-11	-0.276314	0.665883	0.236067	
23679	0.821402	0.509129	1.06403	-0.000472468	0.000503442	2.44999e-10	-0.278618	0.680059	0.291666	
23739	0.822428	0.509246	1.06388	-0.000659376	0.000888422	-0.000192629	574215	65794.4	-81278.5	
24010	0.81395	0.508317	1.06446	-0.00115393	0.000644007	6.70267e-11	-0.277626	0.68172	0.319175	
24099	0.819722	0.508984	1.06393	0.000368235	0.000910598	2.31488e-10	-0.277497	0.682664	0.385814	
24309	0.819997	0.509093	1.06375	-0.00165025	0.00146736	6.59212e-11	-0.240234	0.681643	0.313911	
24399	0.81536	0.508385	1.06403	-0.000150157	-0.000142524	8.61501e-11	-0.278671	0.68073	0.319074	
24459	0.822913	0.509261	1.06339	-0.000338261	0.000993226	1.505e-10	-0.277071	0.680201	0.313542	
24490	0.822913	0.509261	1.06339	-4.66187e-05	0.00031848	1.3172e-10	-0.277578	0.681774	0.313618	
24519	0.822913	0.509261	1.06339	-0.000447638	0.00109433	5.41813e-11	-0.276684	0.680227	0.258006	
24789	0.82102	0.508949	1.06391	-0.000527696	0.00128582	2.7866e-11	-0.22666	0.641445	0.232216	
24820	0.82102	0.508949	1.06391	-0.000516738	0.000545032	3.57299e-11	-0.272822	0.68326	0.238199	
25300	0.82557	0.509422	1.06341	0.000431813	0.000947682	1.31422e-10	-0.268662	0.681947	0.312909	
25449	0.824185	0.5093	1.06369	-0.000873635	0.000614059	1.13235e-10	-0.278138	0.680762	0.314543	
25629	0.822818	0.509041	1.06372	0.000181981	0.00120697	1.81216e-10	-0.19776	0.682296	0.302026	
25839	0.828746	0.50376	1.06658	-0.000842675	0.000789883	1.82904e-10	-0.276946	0.68129	0.320885	
26139	0.825047	0.50304	1.06716	-4.56646e-05	0.000865838	6.89088e-11	-0.276569	0.680808	0.28712	
26170	0.825047	0.50304	1.06716	-4.56652e-05	0.000865838	3.27317e-10	-0.276569	0.680808	0.28712	
26319	0.823458	0.502773	1.06734	-0.00134876	0.000819976	7.51166e-11	-0.27758	0.679934	0.312986	
26350	0.823458	0.502773	1.06734	-0.000823314	0.0013176	1.411e-10	-0.27727	0.680427	0.313556	
26499	0.822658	0.502809	1.0677	-0.000542925	0.000414505	1.79647e-10	-0.259418	0.642459	0.31517	
26619	0.819862	0.508681	1.06389	-0.00120116	0.000920075	4.35168e-11	-0.268516	0.682228	0.36264	
26680	0.819993	0.508807	1.06394	-0.00026571	0.000301245	1.38177e-10	-0.209911	0.68258	0.383826	
26739	0.819535	0.50898	1.06411	-0.000527711	-0.000863351	0.000221978	-326580	123752	121299	
27009	0.818453	0.508798	1.06412	4.36951e-05	0.000829682	5.58952e-11	-0.246072	0.686293	0.310529	
27159	0.817283	0.510122	1.06466	-0.00139853	0.000981345	1.70704e-10	-0.262687	0.681902	0.258643	
27489	0.8181	0.510433	1.06385	0.000145576	0.000367039	1.17314e-10	-0.276694	0.680448	0.230027	
27580	0.811785	0.509665	1.06449	-0.000410742	0.00142936	5.58391e-11	-0.278447	0.680384	0.310217	
27640	0.824028	0.511084	1.06301	-0.00216952	0.00422398	-0.000504141	3.51116e+06	560724	-381925	
27729	0.823375	0.509366	1.06329	-0.00160988	0.000940848	1.30928e-10	-0.276799	0.681149	0.290952	
27789	0.822456	0.509312	1.06319	-0.00124683	0.000788731	1.95635e-10	-0.260354	0.681078	0.271715	
27820	0.822456	0.509312	1.06319	-0.000611771	0.0012923	1.6104e-11	-0.292541	0.68075	0.2684	
27939	0.824532	0.51139	1.06288	-0.0013043	0.00101466	6.06951e-11	-0.265979	0.681567	0.224797	
27999	0.819912	0.504293	1.069	-0.000454018	0.000497135	8.64242e-11	-0.276676	0.681123	0.320089	
28269	0.823479	0.502713	1.06737	-0.00139962	0.000886156	1.43104e-10	-0.194542	0.68247	0.397511	
28480	0.821816	0.502718	1.06755	-2.72952e-05	-0.00933874	2.06643e-10	-0.287554	0.681631	0.313096	
28509	0.821816	0.502718	1.06755	0.000315632	-0.0057629	2.07167e-11	-0.276017	0.680994	0.230186	
28599	0.817072	0.501843	1.06781	0.00673322	-0.004716	0.000247031	-530060	-221959	-108380	
29019	0.829002	0.503378	1.06642	0.00034861	0.000983335	2.39713e-10	-0.266203	0.674485	0.380497	
29079	0.828743	0.5034	1.06643	-0.000352644	0.000851613	1.36649e-10	-0.277017	0.679836	0.303665	
29169	0.829273	0.503579	1.06807	0.000582302	0.00129743	5.62841e-11	-0.276439	0.681256	0.312689	
29230	0.822203	0.502625	1.06745	0.000855607	0.00159994	1.03409e-10	-0.276909	0.682413	0.313359	
29379	0.819918	0.510716	1.0637	6.45133e-05	0.00103509	4.71168e-11	-0.280609	0.680594	0.314112	
29529	0.823972	0.511168	1.06326	6.66298e-06	-1.91054e-05	2.22677e-10	-0.208514	0.682899	0.390661	
29559	0.823972	0.511168	1.06326	-0.00101634	-2.94685e-05	1.12807e-10	-0.216299	0.683256	0.376023	
29799	0.822222	0.511036	1.0637	-0.000198977	0.00144845	1.47458e-10	-0.276402	0.681696	0.307205	
29980	0.815187	0.510238	1.06424	-0.000249839	0.00101776	2.82105e-11	-0.276943	0.680824	0.313451	
30669	0.824857	0.503336	1.06732	0.000117816	0.000417977	6.51919e-11	-0.277731	0.681473	0.310437	
30759	0.828424	0.503846	1.0671	-0.000996521	0.00058978	1.742e-10	-0.277245	0.681006	0.305614	
30819	0.825158	0.509501	1.06364	-0.000129672	0.000368955	1.66179e-11	-0.279293	0.679874	0.276965	
30939	0.822917	0.509143	1.0638	-6.51091e-05	0.000616754	2.81545e-11	-0.276371	0.647626	0.312828	
30999	0.820565	0.508866	1.0642	-0.000813173	0.00138601	3.2826e-11	-0.276173	0.677748	0.27355	
31119	0.8249	0.509348	1.06341	-5.89675e-06	0.00119002	1.03447e-10	-0.276947	0.675345	0.229883	
31359	0.827287	0.509775	1.06317	-0.000954133	0.000816482	6.78664e-11	-0.261116	0.68177	0.251357	
31509	0.821763	0.508349	1.0641	-0.000359712	0.00106176	1.03886e-10	-0.280371	0.681366	0.288571	
31629	0.823073	0.508532	1.06381	-0.00152123	8.74386e-05	4.28603e-11	-0.276477	0.609826	0.238113	
31809	0.833659	0.510015	1.06295	-0.00154304	0.000872678	2.42418e-11	-0.277118	0.680619	0.269354	
31869	0.830829	0.509551	1.06313	-0.000819276	0.000681151	1.24967e-10	-0.276715	0.679973	0.231421	
32230	0.820664	0.508182	1.0641	-0.000563452	0.000622391	1.26602e-10	-0.277409	0.68051	0.234448	
32259	0.820664	0.508182	1.0641	0.000112566	0.0016734	4.31526e-11	-0.27694	0.680807	0.239736	
32319	0.822783	0.508436	1.064	-0.000680883	0.00203905	2.83856e-11	-0.276912	0.68149	0.236547	
32590	0.820012	0.508926	1.06439	0.000858237	0.00136657	2.06825e-10	-0.276566	0.680007	0.299746	
32679	0.821584	0.50913	1.06404	-0.00111055	0.000677846	5.28656e-11	-0.275825	0.679636	0.251741	
32739	0.817795	0.508577	1.06425	-0.00151287	0.000322606	3.67919e-11	-0.26287	0.680562	0.245279	
33009	0.82498	0.509979	1.06356	-0.00158567	-9.85159e-05	7.69592e-11	-0.211027	0.680133	0.256531	
33039	0.82498	0.509979	1.06356	-0.00157774	-9.80219e-05	1.82506e-10	-0.195205	0.680765	0.264501	
33070	0.82498	0.509979	1.06356	-0.000298881	0.000833772	2.82739e-11	-0.201642	0.682214	0.314155	
33159	0.821783	0.509815	1.06408	0.000681409	0.000834324	2.77256e-11	-0.201528	0.682485	0.308062	
33429	0.830741	0.510558	1.0632	-0.000251925	0.00129345	6.6674e-11	-0.276009	0.681698	0.246941	
33579	0.831125	0.510414	1.0633	-0.000910358	0.0016642	8.78895e-11	-0.277018	0.682449	0.325517	
34000	0.8268	0.503482	1.06746	0.001095	0.000785433	1.69521e-10	-0.278576	0.680136	0.269081	
34029	0.8268	0.503482	1.06746	0.000673053	0.000216012	2.01844e-10	-0.277195	0.680706	0.305825	
34120	0.82808	0.503651	1.06704	-0.00107894	0.000707342	1.40347e-10	-0.209771	0.682124	0.233912	
34209	0.830937	0.504289	1.06683	0.000789246	0.000309091	3.55287e-11	-0.247387	0.680114	0.236858	
34389	0.825976	0.503437	1.06736	-0.00154114	0.000207552	1.34905e-10	-0.280085	0.679982	0.236676	
34479	0.826144	0.505367	1.06856	-0.0011053	-6.78185e-05	7.12643e-11	-0.275954	0.681505	0.237548	
35080	0.829183	0.503905	1.06692	-0.000118191	0.00113524	7.8111e-11	-0.277778	0.680733	0.2367	
35259	0.831819	0.504478	1.06824	-0.00132019	0.00186744	1.41126e-10	-0.27586	0.681427	0.313614	
35650	0.832124	0.504448	1.06643	-8.2032e-06	0.000628796	1.03023e-10	-0.277166	0.680893	0.245293	
36399	0.821801	0.509165	1.0639	-0.000652849	0.00127302	5.68045e-11	-0.277574	0.680329	0.236685	
36429	0.821801	0.509165	1.0639	-0.000702926	0.000845177	5.68034e-11	-0.276492	0.680388	0.236681	
36789	0.825174	0.509964	1.06333	0.000482418	0.00121223	6.55979e-11	-0.277922	0.680958	0.273325	
37059	0.833302	0.511228	1.06284	-0.000329263	0.00075313	3.5372e-11	-0.222823	0.68168	0.235814	
37119	0.82825	0.512066	1.06284	0.000324664	0.000814186	8.51533e-11	-0.273881	0.679468	0.236537	
37149	0.82825	0.512066	1.06284	-0.000903776	0.000498966	5.51368e-11	-0.27807	0.696884	0.262556	
37479	0.82246	0.509208	1.0639	-0.00117207	0.00174232	3.4318e-11	-0.276097	0.680509	0.228786	
37779	0.813236	0.535327	1.08242	-0.00117332	0.00106957	8.51964e-11	-0.27478	0.680323	0.236657	
37809	0.813236	0.535327	1.08242	-0.000459053	0.00233034	1.61989e-10	-0.276558	0.679587	0.269981	
38109	0.810591	0.535851	1.0822	-0.00143352	0.000989431	8.30874e-11	-0.278259	0.679886	0.230798	
38140	0.810591	0.535851	1.0822	-0.00103864	0.00114262	9.23429e-11	-0.275445	0.681467	0.236777	
38169	0.810591	0.535851	1.0822	0.000129596	0.000780727	9.93435e-11	-0.277387	0.680434	0.236532	
38200	0.810591	0.535851	1.0822	0.000647453	0.000901102	1.55145e-10	-0.243936	0.680755	0.304206	
38379	0.814608	0.534009	1.07921	-0.000439005	0.000854792	8.50499e-11	-0.277484	0.679951	0.23625	
38890	0.807394	0.538336	1.07727	-0.000602381	-0.000143462	1.40685e-10	-0.255688	0.681786	0.293093	
38950	0.803078	0.540479	1.08043	-0.00141532	0.000847795	3.59131e-11	-0.276252	0.679498	0.239421	
39429	0.818926	0.531413	1.08308	-0.000173157	0.000973723	9.93052e-11	-0.277911	0.680837	0.236441	
39460	0.818926	0.531413	1.08308	-0.00114247	0.000782582	1.13547e-10	-0.277302	0.679675	0.236556	
39699	0.812848	0.53591	1.0793	-0.000925577	0.000443209	6.0397e-11	-0.277329	0.679847	0.251654	
39759	0.813235	0.535581	1.07999	-0.000804492	0.000143969	9.9941e-11	-0.27638	0.679318	0.237955	
39819	0.814288	0.535827	1.08187	5.15395e-05	-0.000147314	6.69827e-11	-0.27731	0.678933	0.202978	
39940	0.816516	0.532891	1.08241	-0.00043022	0.000368402	2.68802e-11	-0.282451	0.679513	0.224002	
40120	0.814059	0.532368	1.07656	-0.000758343	-0.00018278	5.36891e-11	-0.277925	0.679832	0.223705	
40179	0.805372	0.538597	1.07488	-0.000239708	0.00098095	7.55926e-11	-0.268446	0.68074	0.251975	
40269	0.803576	0.540655	1.07417	-0.00116775	0.000574071	3.35031e-11	-0.2758	0.681254	0.279192	
40419	0.808989	0.532196	1.0761	0.000382705	0.00121099	4.99755e-11	-0.278059	0.679251	0.237979	
40509	0.807988	0.534891	1.0798	0.000799542	0.00174053	9.3396e-11	-0.196349	0.681535	0.259433	
40629	0.809176	0.533368	1.08351	-0.000226132	0.00134974	3.23834e-11	-0.264679	0.68087	0.269861	
41260	0.802427	0.542721	1.07521	-0.000645141	0.00130681	1.03419e-10	-0.274622	0.597812	0.246237	
41499	0.800623	0.546064	1.07555	-0.000236578	0.00153208	5.65102e-11	-0.276109	0.680278	0.235459	
41709	0.806438	0.538396	1.07666	-0.00117337	0.00136181	9.23616e-11	-0.27752	0.680328	0.236825	
41740	0.806438	0.538396	1.07666	-0.00112781	0.000614314	1.42014e-11	-0.27647	0.680391	0.23669	
41829	0.790719	0.545062	1.07054	-0.000235949	0.00160113	1.82687e-10	-0.277303	0.680666	0.304479	
42009	0.794313	0.552179	1.07768	-0.00200725	0.00093526	6.39076e-11	-0.27734	0.679941	0.236695	
42039	0.794313	0.552179	1.07768	-0.000809869	0.00154255	5.28323e-11	-0.277446	0.68071	0.251582	
42369	0.800162	0.5487	1.0774	-0.00056981	0.001427	5.50459e-11	-0.191803	0.682276	0.305811	
42489	0.805598	0.544165	1.07911	-0.000274671	0.000293815	1.01309e-10	-0.258465	0.680431	0.306998	
43149	0.812271	0.540677	1.0795	-0.00087646	0.000702965	8.4731e-11	-0.282301	0.680296	0.256761	
43270	0.816633	0.537676	1.07865	-0.000474689	0.0010495	7.19253e-12	-0.277603	0.679581	0.239751	
43540	0.803558	0.540819	1.07923	-0.000365772	0.000808688	9.44863e-11	-0.283585	0.681645	0.314954	
43869	0.801787	0.542438	1.07542	-0.000266715	0.00058971	1.15692e-10	-0.120416	0.265804	0.321365	
43959	0.807902	0.536025	1.08333	-0.000240061	0.000530794	6.52703e-11	-0.207098	0.594733	0.310811	
44709	0.794986	0.546107	1.08099	-0.000113173	0.000250262	6.605e-11	-0.54421	0.583581	0.366944	
44740	0.794986	0.546107	1.08099	-0.000109271	0.000241633	4.73388e-11	-0.115502	0.677348	0.315592	
44889	0.801587	0.542786	1.08081	-9.54368e-05	0.000211048	4.78513e-11	-0.108904	0.768962	0.398761	
45100	0.807564	0.539796	1.08838	-7.65468e-05	0.000169277	5.86619e-11	-0.300078	0.528571	0.244425	
45159	0.809434	0.537078	1.08195	-7.20781e-05	0.000159395	6.77861e-11	-0.423807	0.469532	0.322791	
45460	0.801991	0.53972	1.07328	-5.33616e-05	0.000117992	9.34438e-11	-0.342319	0.440389	0.311479	
45489	0.801991	0.53972	1.07328	-5.20415e-05	0.000115071	-3.86983e-12	-0.390077	0.597248	-0.0107495	
45520	0.801991	0.53972	1.07328	-5.02505e-05	0.000111104	-2.4455e-11	-0.191849	0.522019	-0.135861	
45609	0.79007	0.537247	1.06488	-4.66403e-05	0.000103051	-1.81865e-10	-0.149985	0.589512	-0.303109	
45789	0.790681	0.532651	1.06566	-3.85909e-05	8.51523e-05	-4.42836e-10	-0.116143	0.653372	-1.2301	
45850	0.786223	0.532415	1.05668	-3.61437e-05	7.97869e-05	-3.75514e-10	0.0166591	0.541488	-1.39079	
46119	0.732967	0.543562	0.981229	0.0250872	0.0125013	-9.94549e-10	-0.265555	0.422089	-1.9501	
46209	0.739698	0.529106	0.915226	0.0877306	0.0355964	-1.09201e-09	-0.286715	0.572095	-2.42669	
46389	0.726291	0.517711	0.803429	0.298639	0.230237	9.35576e-11	-0.134951	0.658361	1.55929	
46719	0.698308	0.510704	0.439724	0.198082	0.0902821	5.09029e-10	-0.239596	0.639991	0.998096	
46750	0.698308	0.510704	0.439724	0.178033	0.0800342	2.52876e-10	-0.222462	0.635877	1.40487	
46810	0.723446	0.492721	0.342316	0.169944	0.0449658	1.50868e-09	-0.225212	0.591551	4.19077	
46899	0.709668	0.511957	0.303894	0.0583474	0.041454	1.58653e-09	-0.415621	0.663904	4.40701	
47560	0.656806	0.523769	0.356993	-0.0231975	0.017677	-3.27283e-10	-0.184631	0.426603	-0.779246	
47739	0.653557	0.52448	0.35557	-0.0104014	0.0420796	1.04501e-10	-0.149408	0.509657	0.290279	
47889	0.671817	0.518667	0.353881	-0.0196543	0.0396219	2.65297e-10	-0.126237	0.62135	0.884325	
47949	0.678848	0.519268	0.352373	-0.0181648	0.0373271	6.15304e-10	-0.158377	0.36489	1.07948	
48009	0.687843	0.517943	0.349008	-0.0262469	0.0388316	1.32711e-10	-0.164117	0.540151	0.884739	
48639	0.710756	0.528571	0.355508	-0.0151927	0.0524372	3.63352e-11	-0.275416	0.526206	0.0931672	
49149	0.711954	0.542797	0.353975	0.00428123	0.0387578	2.67102e-11	-0.200924	0.484674	0.445171	
49179	0.711954	0.542797	0.353975	-0.00105811	0.0363305	1.81149e-10	-0.21616	0.451901	0.464486	
49419	0.735645	0.562146	0.360627	-0.00251143	0.0248124	1.66844e-10	-0.370074	0.474551	0.292709	
49599	0.727017	0.558647	0.364781	-0.0235459	-0.0264641	0.00272747	-5.90057e+06	-2.85653e+06	1.69691e+07	
49869	0.736451	0.556293	0.369128	-0.0466396	-0.00962451	2.36327e-10	-0.193552	0.482063	0.492348	
49989	0.750207	0.561962	0.368956	-0.0661184	-0.0282258	6.51979e-11	-0.176672	0.480196	0.241474	
50109	0.74976	0.558438	0.368316	-0.0810123	-0.0392945	5.57746e-11	-0.175021	0.341161	0.371831	
50139	0.74976	0.558438	0.368316	-0.0665431	-0.0342828	5.90682e-11	-0.278586	0.425929	0.196894	
50739	0.810985	0.521604	0.366422	-0.0829205	-0.0636427	1.34521e-10	-0.124211	0.489125	0.224202	
50829	0.817401	0.52129	0.365074	-0.0717188	-0.062599	4.43542e-11	-0.256975	0.447172	0.295695	
51069	0.825076	0.512252	0.364627	-0.0680736	-0.0522307	1.16533e-10	-0.117997	0.494307	0.258961	
51460	0.882224	0.468698	0.367293	-0.0505741	-0.05323	2.42769e-10	-0.153516	0.446786	0.449572	
51849	0.908229	0.45123	0.368592	-0.0688168	-0.0401164	1.73284e-11	-0.11123	0.572824	0.288806	
52060	0.909088	0.445739	0.358919	-0.05476	-0.0289343	1.26904e-10	-0.234456	0.451955	0.248832	
52449	0.91987	0.434472	0.364902	-0.0291608	-0.0125708	1.12098e-10	-0.203638	0.442526	0.287431	
52509	0.92708	0.428867	0.365178	-0.0353875	-0.0139634	7.32974e-11	-0.261372	0.513366	0.244325	
52569	0.924665	0.425702	0.359697	-0.0275453	-0.0110303	6.60314e-11	-0.177978	0.496312	0.314435	
52959	0.929702	0.419979	0.361119	-0.0111435	-0.00184845	1.41077e-10	-0.3242	0.459989	0.313504	
53019	0.924167	0.423727	0.361085	-0.00685102	0.00464241	8.38562e-11	-0.164057	0.439726	0.399315	
53169	0.921151	0.420424	0.359986	-0.00708682	0.0231497	1.27756e-10	-0.161915	0.680452	0.170342	
53259	0.923944	0.418379	0.360381	-0.0200228	0.0427597	1.3147e-10	-0.167527	0.537286	0.273895	
53649	0.924954	0.416938	0.359839	-0.0475645	0.226798	1.73006e-11	-0.289312	0.646117	0.0411919	
53769	0.922914	0.418998	0.359931	-0.0564848	0.291664	1.5072e-10	-0.300249	0.511628	0.209333	
53889	1.00271	0.439869	0.383181	-0.0620906	0.336247	1.73314e-10	-0.338887	0.580082	0.275102	
54039	1.01412	0.517384	0.384265	-0.0776371	0.435434	4.12567e-11	-0.380151	0.546307	0.275045	
54219	1.03884	0.560785	0.374247	-0.106739	0.48671	1.32087e-10	-0.411912	0.40038	0.338685	
54279	1.05606	0.589519	0.372941	-0.115878	0.519129	2.09e-10	-0.419002	0.501429	0.497619	
54429	1.09975	0.648551	0.373075	-0.168542	0.551449	1.05558e-10	-0.502398	0.451082	0.35186	
54609	1.13906	0.728442	0.378763	-0.194297	0.587759	2.10568e-10	-0.559565	0.410293	0.334236	
54879	1.22894	0.883317	0.363444	-0.1759	0.652615	1.80416e-11	-0.495107	0.446375	0.601386	
55119	1.27939	1.01995	0.360689	-0.149777	0.689293	1.56606e-10	-0.619689	0.388953	0.401555	
55509	1.34789	1.29502	0.36176	-0.0758053	0.730753	8.25667e-11	-0.633875	0.52872	0.196587	
55569	1.37068	1.33065	0.35368	-0.0638953	0.734742	8.67092e-11	-0.659505	0.527318	0.206451	
55779	1.42055	1.49828	0.34163	-0.0496241	0.733312	2.0337e-11	-0.651531	0.465534	0.33895	
55899	1.44007	1.59193	0.332028	-0.028811	0.676408	1.76782e-11	-0.534613	0.525135	0.196424	
55929	1.44007	1.59193	0.332028	-0.0503734	0.69596	4.99876e-11	-0.537254	0.587846	0.333251	
56109	1.467	1.69225	0.319639	0.00690044	0.679745	8.46558e-11	-0.644989	0.444249	0.352733	
56139	1.467	1.69225	0.319639	-0.00465562	0.679611	1.62045e-10	-0.513921	0.531069	0.360099	
56289	1.47891	1.85503	0.302826	0.0423779	0.634335	1.12964e-10	-0.577074	0.598706	0.376548	
56349	1.48585	1.86773	0.300531	0.0629017	0.612741	9.92765e-11	-0.572923	0.676261	0.275768	
56379	1.48585	1.86773	0.300531	0.0872288	0.610164	9.10483e-11	-0.515529	0.56202	0.303494	
56409	1.48585	1.86773	0.300531	0.0936579	0.590533	1.68511e-10	-0.425418	0.64962	0.432079	
56559	1.48596	2.00076	0.29563	0.102243	0.577057	1.55756e-10	-0.594001	0.610131	0.370849	
56619	1.48332	2.02446	0.291252	0.105228	0.533427	7.28203e-11	-0.470533	0.721007	0.202279	
56649	1.48332	2.02446	0.291252	0.0952919	0.532584	1.59492e-11	-0.387338	0.758383	0.13291	
57099	1.42647	2.28301	0.258465	0.164741	0.415493	1.02347e-10	-0.509992	0.641221	0.379062	
57129	1.42647	2.28301	0.258465	0.12301	0.411596	2.76131e-11	-0.356841	0.732902	0.306812	
57159	1.42647	2.28301	0.258465	0.114961	0.423645	1.04902e-10	-0.524242	0.589016	0.437092	
57639	1.38197	2.56214	0.221181	0.219665	0.377191	1.59669e-10	-0.372648	0.700427	0.443525	
57669	1.38197	2.56214	0.221181	0.181174	0.370399	4.9249e-11	-0.286229	0.859632	0.273606	
57849	1.33228	2.65793	0.206392	0.166988	0.359464	9.4881e-11	-0.337257	0.720145	0.287518	
57879	1.33228	2.65793	0.206392	0.185608	0.369164	8.40537e-11	-0.251271	0.643728	0.350224	
57909	1.33228	2.65793	0.206392	0.152997	0.366105	4.13769e-11	-0.353458	0.790961	0.229872	
57939	1.33228	2.65793	0.206392	0.184155	0.361267	1.80592e-10	-0.380269	0.663746	0.501645	
58029	1.30706	2.70233	0.195574	0.128334	0.33837	2.21914e-11	-0.23826	0.734629	0.369857	
58059	1.30706	2.70233	0.195574	0.128334	0.33837	3.55063e-10	-0.23826	0.734629	0.369857	
58359	1.27342	2.82187	0.188059	0.0692275	0.169937	8.20246e-12	-0.324221	0.680367	0.273415	
58449	1.27204	2.84223	0.18622	0.0447386	0.146965	1.04789e-10	-0.081711	0.674218	0.388108	
58509	1.25889	2.84395	0.181867	0.0507494	0.128077	2.37664e-10	-0.223599	0.584596	0.416955	
58689	1.24026	2.86335	0.17384	0.054287	0.0445401	3.13556e-11	-0.156238	0.704905	0.149312	
58929	1.23046	2.87391	0.175846	-0.000988986	-0.0634371	-2.85718e-12	-0.151312	0.71996	-0.0190479	
59139	1.24749	2.86781	0.177978	0.00461027	-0.19155	1.35375e-11	0.0106416	0.632773	0.0250694	
59199	1.24966	2.86619	0.178535	-0.0168953	-0.235488	2.44111e-11	-0.118387	0.561321	0.271234	
59289	1.27031	2.8472	0.180176	-0.0316558	-0.265102	4.78225e-11	-0.0626184	0.652115	0.17712	
59379	1.25124	2.81189	0.181903	-0.0321025	-0.29948	8.36944e-11	-0.113845	0.613796	0.348727	
59529	1.24786	2.7662	0.176216	-0.0402186	-0.35857	5.21061e-11	0.0577544	0.585972	0.347374	
59769	1.27863	2.68741	0.187824	-0.0457983	-0.438247	5.8306e-11	0.0112912	0.466268	0.388707	
59859	1.24891	2.62017	0.185694	-0.0411828	-0.4828	4.44482e-11	0.256754	0.495869	0.370402	
59979	1.24953	2.57606	0.185886	-0.0260383	-0.48925	1.36028e-10	0.275552	0.550366	0.323876	
60129	1.25144	2.50362	0.199695	-0.00725533	-0.500551	8.53695e-11	0.125531	0.464823	0.406521	
60309	1.25153	2.402	0.216317	0.010234	-0.495425	8.61997e-13	-0.0106509	0.456701	0.00106419	
60909	1.25178	2.17354	0.239769	-0.01545	-0.195747	1.33529e-10	-0.243007	0.548802	0.19352	
61059	1.25281	2.13303	0.238177	-0.0533456	-0.0725753	2.26936e-10	-0.283354	0.461416	0.260846	
61089	1.25281	2.13303	0.238177	-0.0331619	-0.0697665	2.60567e-11	-0.193582	0.511637	0.0789596	
61179	1.26194	2.12837	0.238285	-0.041944	-0.0298156	7.15748e-11	-0.181156	0.396903	0.340832	
61630	1.28356	2.12026	0.241863	-0.0155166	-0.0121232	1.92985e-11	-0.148513	0.298823	0.321642	
61689	1.28334	2.11028	0.2409	-0.0176703	-0.00900941	1.21928e-10	-0.221585	0.569014	0.203214	
61779	1.28761	2.11764	0.24497	-0.00868094	-0.00111517	6.67542e-11	-0.157946	0.489859	0.247238	
61959	1.28516	2.10592	0.240739	-0.00335844	0.000137528	8.09605e-11	-0.192073	0.595613	0.22489	
62380	1.29794	2.10243	0.240627	-0.00546146	0.0181429	9.55102e-11	-0.162112	0.432925	0.318367	
62410	1.29794	2.10243	0.240627	-0.00546146	0.0181429	3.82041e-10	-0.162112	0.432925	0.318367	
62559	1.2873	2.10001	0.233937	0.0117477	0.0408835	9.76318e-11	-0.251714	0.544407	0.203399	
62739	1.29279	2.10171	0.238288	0.00366456	0.0875407	2.22677e-11	-0.272559	0.551674	0.0618548	
62859	1.29173	2.1109	0.232605	0.00357745	0.0917808	1.95764e-10	-0.191378	0.471638	0.310736	
63040	1.28804	2.11506	0.231484	-0.00273544	0.0870186	5.70609e-11	-0.265075	0.497384	0.317005	
63099	1.28612	2.11607	0.231152	-0.00220371	0.0942368	6.95966e-11	-0.262969	0.556493	0.257765	
63369	1.29285	2.15156	0.217992	-0.00675387	0.0824031	1.30824e-10	-0.125486	0.52923	0.396437	
63580	1.2933	2.16716	0.212855	-0.00485466	0.0614785	2.60059e-10	-0.187384	0.574287	0.346745	
63610	1.2933	2.16716	0.212855	-0.0386758	0.067606	5.69135e-11	-0.138853	0.547445	0.316186	
63760	1.30643	2.17886	0.217932	-0.0483837	0.0616104	1.07462e-10	-0.170276	0.502528	0.275545	
63789	1.30643	2.17886	0.217932	-0.0515156	0.066411	9.02761e-11	-0.255519	0.447782	0.334356	
63849	1.32055	2.19885	0.213566	-0.055827	0.0740035	2.45053e-10	-0.160826	0.474321	0.340351	
63969	1.32816	2.20162	0.21707	-0.0930944	0.0607664	3.71966e-11	-0.373153	0.501049	0.247977	
63999	1.32816	2.20162	0.21707	-0.0893293	0.0686244	7.3065e-11	-0.230182	0.382262	0.24355	
64539	1.4106	2.22882	0.213152	-0.182104	0.0634183	1.42537e-10	-0.133984	0.4335	0.263957	
64629	1.42721	2.23204	0.216876	-0.162255	0.0589489	5.33439e-11	-0.304891	0.394835	0.222266	
64779	1.44115	2.24042	0.213738	-0.114355	0.0435476	1.9146e-10	-0.236651	0.326306	0.3191	
64810	1.44115	2.24042	0.213738	-0.101597	0.0364895	9.73379e-11	-0.186659	0.440632	0.32446	
65169	1.47339	2.24354	0.215232	-0.00527529	0.0249375	6.45817e-11	-0.0991606	0.420467	0.239191	
65290	1.47786	2.24294	0.221477	0.0047577	0.0231137	1.11151e-11	-0.0473631	0.578128	0.0926257	
65349	1.47506	2.23487	0.222837	0.00591552	0.0198281	5.38337e-11	-0.271183	0.504205	0.138035	
65770	1.47029	2.24311	0.227802	0.0413685	0.0192051	9.39071e-11	-0.181337	0.540501	0.208682	
65979	1.46986	2.24773	0.234004	0.0329129	0.00819224	8.50355e-11	-0.118653	0.541477	0.166736	
66339	1.45043	2.25453	0.227144	0.0388385	-0.0125774	6.26651e-11	-0.059761	0.577081	0.189894	
66759	1.41191	2.26104	0.213063	0.0609155	-0.005103	7.69697e-11	-0.123329	0.531451	0.366522	
67150	1.36206	2.28202	0.200846	0.0517277	0.0827735	7.30945e-11	-0.0577105	0.584879	0.162432	
67179	1.36206	2.28202	0.200846	0.0504662	0.100846	1.69528e-11	-0.222824	0.405874	0.282547	
67209	1.36206	2.28202	0.200846	0.0502534	0.102892	1.20392e-10	-0.222508	0.541279	0.182411	
67509	1.31153	2.3112	0.189084	0.0647735	0.177603	9.01787e-11	-0.251383	0.522643	0.187872	
67899	1.3066	2.40261	0.171996	0.0135066	0.307724	2.21545e-11	-0.343269	0.517549	0.0671348	
68169	1.31718	2.48869	0.166015	-0.0435341	0.356862	2.80484e-11	-0.356983	0.611839	0.155824	
68199	1.31718	2.48869	0.166015	-0.0438326	0.346755	4.99028e-11	-0.378498	0.425246	0.277238	
68230	1.31718	2.48869	0.166015	-0.0575792	0.359712	3.60344e-11	-0.33913	0.515693	0.300287	
68379	1.34046	2.56656	0.158558	-0.0841706	0.36912	7.71784e-11	-0.410089	0.420295	0.428769	
68709	1.40935	2.69646	0.160985	-0.187156	0.367105	2.04336e-10	-0.303527	0.519017	0.4257	
68739	1.40935	2.69646	0.160985	-0.181896	0.354278	2.46317e-10	-0.253676	0.420576	0.456143	
68830	1.42849	2.72872	0.157906	-0.22741	0.335191	6.65017e-11	-0.19658	0.594418	0.369454	
69159	1.49474	2.82439	0.164447	-0.140675	0.246997	1.79587e-11	-0.252105	0.479994	0.149656	
69189	1.49474	2.82439	0.164447	-0.142307	0.240584	1.60891e-11	-0.268713	0.449006	0.268151	
69339	1.51102	2.86457	0.169948	-0.561102	-0.0210298	-0.0261048	9.19764e+07	8.31395e+07	3.0191e+07	
69969	1.54263	2.9387	0.203453	0.0379088	0.0332005	5.69409e-11	-0.126586	0.616616	0.0949015	
70689	1.55164	2.95929	0.187901	-0.0128007	0.0113469	3.89941e-10	-0.154168	0.598853	0.464216	
70780	1.54493	2.95525	0.186853	-0.0107706	0.00622633	1.7002e-10	-0.180927	0.492825	0.354209	
70989	1.54418	2.95104	0.178587	-0.019369	-0.019225	1.41172e-10	-0.223347	0.45565	0.392145	
71169	1.5509	2.95643	0.169896	0.0076535	-0.0510341	8.7903e-11	-0.105093	0.634389	0.244175	
71349	1.54356	2.94164	0.172189	0.0499363	-0.0661392	2.13332e-11	0.0384859	0.576604	0.177777	
71770	1.48807	2.90646	0.165619	0.189072	-0.0502347	2.45322e-11	-0.146862	0.630371	0.0817739	
71949	1.46889	2.90554	0.164788	0.180541	-0.0294471	1.53364e-10	0.0569829	0.589424	0.222267	
72039	1.45304	2.9067	0.163745	0.271548	-0.0219459	1.97738e-11	-0.0657574	0.651777	0.164782	
72069	1.45304	2.9067	0.163745	0.272481	-0.0209066	2.17003e-10	-0.0145704	0.650135	0.328792	
72160	1.40676	2.89992	0.158129	0.281903	-0.00558544	2.71935e-10	0.0375705	0.643042	0.36258	
72579	1.27154	2.93003	0.126601	0.387201	0.0593102	6.21886e-11	-0.0835152	0.619616	0.345492	
72820	1.17245	2.94854	0.110954	0.365867	0.11914	3.97066e-11	-0.270175	0.66319	0.220592	
72849	1.17245	2.94854	0.110954	0.350718	0.129713	7.41908e-11	-0.00351846	0.695773	0.353289	
72939	1.15183	2.97365	0.10546	0.340859	0.133704	2.02499e-11	-0.11453	0.755857	0.337498	
73329	1.01041	3.04394	0.0799814	0.213847	0.170685	6.40108e-11	-0.0810744	0.68483	0.237077	
73719	1.00413	3.1251	0.0744141	0.0245075	0.0493851	3.34491e-11	-0.132581	0.713256	0.222994	
73750	1.00413	3.1251	0.0744141	0.0107577	0.0416473	3.45827e-11	-0.0566626	0.64083	0.104796	
74019	0.992674	3.13416	0.066819	-0.0486576	-0.0358573	9.78855e-11	-0.0288031	0.519379	0.407856	
74079	0.992693	3.13011	0.0680274	-0.0457266	-0.0482105	2.19968e-11	-0.0366832	0.566821	0.183307	
74229	0.985796	3.11497	0.0617035	-0.0308061	-0.0410172	5.63156e-11	0.142071	0.50038	0.625729	
74259	0.985796	3.11497	0.0617035	-0.0273244	-0.0422764	7.16869e-11	-0.0408456	0.548384	0.39826	
74410	0.993873	3.10307	0.0621742	-0.0508039	-0.0386482	3.84469e-11	-0.112715	0.537102	0.320391	
74769	0.995825	3.08774	0.0663365	-0.033282	-0.0160024	1.8539e-11	-0.153182	0.514573	0.102995	
74829	1.00594	3.08918	0.0695652	-0.0340527	-0.0356129	1.8374e-11	-0.142989	0.386873	0.102078	
74890	1.01302	3.08882	0.0693615	-0.0284138	-0.0417917	2.68821e-11	-0.0617254	0.666828	0.224017	
75159	1.0075	3.07153	0.0934739	-0.0621713	-0.0675441	1.26137e-10	-0.0475921	0.435388	0.467174	
75669	1.059	3.01738	0.0761843	-0.0489388	-0.0919445	6.27258e-11	-0.120573	0.547346	0.160835	
75999	1.05403	2.98659	0.0883731	0.084305	-0.0645861	3.44878e-11	-0.0584014	0.71048	0.287398	
76360	0.979768	2.95579	0.0890003	0.233966	-0.0247057	3.7548e-11	-0.133769	0.613645	0.2086	
76419	0.973909	2.96233	0.0926179	0.244242	-0.0268016	7.59991e-11	-0.198821	0.718405	0.19487	
76749	0.867292	2.96871	0.0815608	0.350143	0.0204446	6.21458e-11	-0.109649	0.648379	0.345255	
76929	0.801923	2.97537	0.071643	0.362474	0.0631141	1.45712e-10	-0.212602	0.713864	0.404754	
76990	0.78368	2.97653	0.0673842	0.365161	0.0691943	5.33884e-11	-0.195614	0.764844	0.296602	
77019	0.78368	2.97653	0.0673842	0.361399	0.0746813	1.25544e-11	-0.284679	0.753864	0.20924	
77109	0.731285	2.98482	0.0669808	0.31356	0.0751993	9.29293e-12	-0.124882	0.724258	0.0516274	
77439	0.67675	3.02773	0.063065	0.0712681	0.0407811	3.56568e-11	-0.164711	0.605718	0.237712	
77679	0.629268	3.03157	0.0412528	0.0113933	0.0405645	5.87968e-11	-0.0699651	0.569249	0.391979	
78039	0.609989	3.04237	0.0423126	-0.0350213	0.00256414	7.42569e-11	-0.0906245	0.564355	0.206269	
78129	0.604015	3.04127	0.0366579	-0.0317422	0.00602072	4.55724e-11	-0.0323921	0.560117	0.25318	
78279	0.615618	3.04704	0.0467532	-0.0250108	0.00553197	3.51642e-11	-0.108116	0.50029	0.195357	
78610	0.619332	3.04345	0.0482846	-0.026931	0.00730171	4.36159e-11	-0.0394188	0.440293	0.290773	
78909	0.600058	3.03671	0.0657392	-0.0494693	-0.00237999	1.92789e-11	-0.0213234	0.426603	0.21421	
79569	0.706417	3.02901	0.0698743	-0.100992	-0.109171	2.01539e-10	-0.177033	0.559384	0.268719	
79630	0.698857	3.01611	0.0650074	-0.110877	-0.132059	3.44182e-11	-0.0247371	0.408509	0.229455	
79899	0.738464	2.97061	0.0700462	-0.0887338	-0.213606	1.95109e-11	-0.118976	0.479177	0.216788	
80289	0.762572	2.86893	0.0793263	-0.00218967	-0.279569	5.87263e-11	-0.0736138	0.553503	0.108752	
80409	0.748929	2.83569	0.0751552	0.00882737	-0.295402	6.35929e-11	0.0525567	0.538913	0.211976	
81040	0.714	2.64312	0.0844006	0.0288729	-0.251582	2.0011e-10	-0.0147856	0.518249	0.370574	
81249	0.704385	2.57904	0.0920589	0.388608	0.130138	0.0860805	1.29803e+08	5.18659e+07	6.70477e+07	
81309	0.696037	2.57275	0.0936712	0.0174116	-0.132317	1.0751e-10	-0.0103411	0.445086	0.398186	
81850	0.674267	2.49377	0.0956968	0.00905247	-0.0045174	1.18723e-10	-0.144793	0.544421	0.219858	
81909	0.670027	2.48731	0.0939172	0.0131162	0.0115551	8.73364e-11	-0.158492	0.511529	0.363901	
81969	0.674245	2.48787	0.0930596	-0.0574743	0.0750873	0.0442058	3.22766e+07	2.39162e+07	2.30239e+07	
82059	0.657647	2.48321	0.090924	0.00387157	0.0182581	3.58663e-11	-0.119676	0.552055	0.199257	
82210	0.651993	2.4921	0.0921251	0.0102652	0.0229006	1.93119e-10	-0.152589	0.452942	0.357629	
82449	0.659909	2.48898	0.0997556	0.0109268	0.0292917	5.41343e-11	-0.152947	0.506137	0.106146	
82539	0.658932	2.48923	0.10003	0.00511799	0.0413232	2.26996e-11	-0.282693	0.495763	0.151331	
82599	0.655859	2.49156	0.100075	0.0165771	0.0423523	7.47503e-11	-0.302322	0.521236	0.276853	
82929	0.6294	2.49584	0.0922368	0.00302454	0.03677	3.73238e-11	-0.0968325	0.369175	0.248825	
83019	0.628621	2.49655	0.0913822	-0.0129813	0.0343698	3.97197e-11	-0.163081	0.585047	0.189142	
83289	0.565961	2.39653	0.0940152	-0.0227856	-0.000938849	9.9846e-11	-0.0331446	0.553801	0.237728	
83320	0.565961	2.39653	0.0940152	-0.0369462	0.00679569	1.39192e-10	-0.258658	0.479411	0.272925	
83470	0.627775	2.49748	0.092399	0.00552199	0.000489483	2.60413e-10	-0.150797	0.428747	0.456865	
84100	0.63248	2.49294	0.104145	0.00438367	0.00766806	3.83364e-11	-0.139998	0.520094	0.0751695	
84190	0.630567	2.4935	0.102398	-0.00522918	-0.0049565	5.41938e-11	-0.14265	0.457226	0.164224	
84610	0.641544	2.49468	0.11339	-0.0219626	0.0145751	5.85671e-11	-0.190471	0.429415	0.162686	
84760	0.644288	2.4939	0.105727	-0.0267761	0.0266833	1.29626e-10	-0.229117	0.423079	0.308634	
84909	0.644445	2.49922	0.101072	-0.0281373	0.0420876	3.06258e-10	-0.0163034	0.40998	0.340286	
85029	0.645112	2.50046	0.108838	-0.0351466	0.0516588	1.30259e-10	-0.130084	0.416516	0.31014	
85599	0.747875	2.54695	0.0780413	-0.300712	0.137229	1.42194e-10	-0.183008	0.344395	0.338557	
85659	0.756791	2.5536	0.0753816	-0.318839	0.142345	3.9157e-11	-0.280046	0.372843	0.326309	
86050	0.927054	2.61296	0.0888585	-0.449415	0.0922807	5.02163e-11	-0.346927	0.131629	0.418469	
86379	1.10831	2.63629	0.102303	-0.582204	0.00147406	1.25983e-10	-0.361445	0.24957	0.167977	
86440	1.128	2.63597	0.10317	-0.625666	-0.0245281	4.23283e-11	-0.295058	0.234563	0.201563	
86590	1.25482	2.61163	0.119061	-0.673046	-0.0359539	2.64055e-11	-0.365935	0.126655	0.0303511	
86829	1.4339	2.58883	0.134826	-0.855306	-0.212515	7.15054e-11	-0.168057	0.0254024	0.595878	
87159	1.70411	2.50002	0.179125	-0.773408	-0.299144	7.67021e-11	-0.0641768	0.0909717	0.284082	
87279	1.82665	2.46043	0.202962	-0.706373	-0.254805	-4.0844e-11	-0.0780773	-0.0353848	-0.0523642	
87579	2.08743	2.33437	0.240416	-0.696503	-0.334083	3.84579e-11	-0.229054	0.244271	0.116539	
87639	2.10742	2.32013	0.243312	-0.639444	-0.357732	7.91528e-12	-0.068593	-0.0385366	0.0659607	
87909	2.27075	2.22075	0.256333	0.913557	0.236691	0.0687039	1.97342e+08	-4.14545e+07	2.8151e+07	
88059	2.33349	2.17673	0.261555	-0.226034	-0.145033	1.49874e-10	-0.158573	0.276439	0.227082	
88119	2.35049	2.16597	0.25783	-0.153314	-0.106599	2.93232e-11	-0.18388	0.388151	0.24436	
88240	2.35905	2.14955	0.262651	-0.0529222	-0.00367028	2.24766e-11	-0.169726	0.42428	0.37461	
88360	2.37351	2.12723	0.295756	0.000802551	0.00974713	5.07231e-11	-0.177313	0.507877	0.338154	
88749	2.41295	2.15074	0.276866	0.0377118	0.0238427	6.30096e-11	-0.0708787	0.42007	0.350054	
88810	2.41089	2.15016	0.272928	0.0381538	0.0271874	1.86681e-10	-0.297291	0.454156	0.36604	
88869	2.39945	2.14055	0.267525	0.0544022	0.0271996	4.89319e-11	-0.228279	0.497141	0.181229	
88990	2.38686	2.1375	0.26937	0.0420828	0.029889	5.19064e-11	-0.264754	0.610784	0.096123	
89529	2.34292	2.14818	0.26091	0.0478004	0.0158617	7.15136e-11	-0.250145	0.668102	0.158919	
90189	2.22893	2.16125	0.252696	0.232849	0.100491	1.36324e-11	-0.141406	0.615202	0.227206	
90309	2.20104	2.17912	0.248656	0.219593	0.110049	2.70072e-11	-0.21915	0.541249	0.08184	
90339	2.20104	2.17912	0.248656	0.212752	0.101228	7.49586e-11	-0.243263	0.479754	0.124931	
90369	2.20104	2.17912	0.248656	0.213021	0.110631	1.39909e-11	-0.191855	0.569426	0.0388635	
90459	2.16914	2.19444	0.246848	0.176112	0.110442	2.56097e-11	-0.283053	0.489257	0.0569104	
90520	2.15876	2.20721	0.238056	0.161442	0.107208	9.03038e-11	-0.118575	0.455323	0.273648	
90699	2.14093	2.21736	0.239617	0.111207	0.104505	8.57923e-11	-0.176705	0.505794	0.317749	
90999	2.09438	2.25239	0.218549	0.0420625	0.095603	8.21351e-11	-0.202384	0.360296	0.273784	
91659	2.14551	2.34769	0.20821	-0.150099	0.0462087	8.45822e-11	-0.203099	0.247716	0.313267	
91689	2.14551	2.34769	0.20821	-0.149862	0.0434073	4.23544e-11	-0.190742	0.308751	0.176477	
92019	2.22968	2.37455	0.226597	-0.256979	0.0075489	4.06787e-11	-0.256879	0.278334	0.193708	
92079	2.24431	2.37319	0.229512	-0.276645	-0.00710918	3.48681e-11	-0.303347	0.348809	0.290567	
92229	2.30886	2.38957	0.232631	-0.257107	-0.0171334	5.60673e-11	-0.172137	0.228038	0.233614	
92289	2.31728	2.38842	0.231973	-0.229724	-0.00992695	4.02044e-11	-0.159685	0.282155	0.121831	
92319	2.31728	2.38842	0.231973	-0.245688	-0.013899	1.80007e-11	-0.189916	0.293108	0.0666694	
92829	2.4622	2.42097	0.233539	-0.0898315	0.0429787	2.01966e-10	-0.118166	0.39763	0.320581	
92920	2.48419	2.42908	0.235062	-0.062198	0.0471189	6.37627e-11	-0.173839	0.310492	0.212542	
93429	2.59332	2.51451	0.244427	-9.16352e-05	0.0593879	1.76619e-10	-0.160429	0.463602	0.327072	
93459	2.59332	2.51451	0.244427	0.00454807	0.0596106	6.63257e-11	-0.134701	0.487369	0.245651	
94239	2.60832	2.55899	0.239548	0.0340427	0.00782666	2.80275e-11	-0.214266	0.54125	0.311416	
94329	2.58988	2.55353	0.233887	0.0334904	0.016211	4.89759e-11	-0.212366	0.549331	0.326506	
94540	2.57757	2.55237	0.237928	0.043849	0.0127866	1.63751e-10	-0.16489	0.569707	0.341148	
94600	2.57009	2.5491	0.234554	0.0420845	0.0125622	5.49224e-11	-0.242488	0.43045	0.261535	
94629	2.57009	2.5491	0.234554	0.0245524	0.0144563	1.68664e-10	-0.121566	0.621287	0.401581	
95289	2.54039	2.55667	0.240054	0.0284142	0.0630938	4.55688e-11	-0.150224	0.51039	0.50632	
95559	2.55769	2.59661	0.237008	0.00798462	0.0816594	5.56805e-11	-0.3101	0.523442	0.371203	
95709	2.55905	2.61454	0.228261	-0.0266075	0.0941684	9.24473e-11	-0.295227	0.566466	0.205438	
96520	2.64911	2.79261	0.221557	-0.0462305	0.105702	5.17427e-11	-0.316998	0.430364	0.156796	
96549	2.64911	2.79261	0.221557	-0.0446798	0.103018	5.32817e-11	-0.16361	0.506826	0.177606	
96579	2.64911	2.79261	0.221557	-0.0431529	0.098095	3.41299e-11	-0.223026	0.471394	0.227533	
96700	2.66607	2.82393	0.223622	-0.068422	0.0638672	7.58222e-11	-0.308023	0.545215	0.140412	
96729	2.66607	2.82393	0.223622	-0.0572736	0.0590742	4.07483e-11	-0.285726	0.528113	0.0905517	
96759	2.66607	2.82393	0.223622	-0.0587697	0.0450014	4.47722e-11	-0.219914	0.411556	0.248735	
96789	2.66607	2.82393	0.223622	-0.0519673	0.0410917	4.04291e-11	-0.332422	0.373117	0.149737	
97390	2.73067	2.85861	0.219692	-0.0484085	-0.0202502	5.29836e-11	-0.181765	0.400129	0.44153	
97629	2.74553	2.85269	0.218895	-0.0389734	-0.0286236	1.66425e-10	-0.24837	0.521407	0.184917	
97929	2.75138	2.84503	0.220818	-0.0117923	-0.0264894	1.2056e-10	-0.11158	0.550416	0.22326	
97989	2.75537	2.84286	0.219789	0.00603504	-0.0291865	9.88717e-13	-0.327913	0.527992	0.00299611	
98169	2.76031	2.8396	0.222029	0.0238429	-0.0264723	1.2867e-10	-0.129303	0.555175	0.329924	
98440	2.69704	2.76289	0.216944	0.0679512	-0.0230403	6.38976e-12	-0.0881633	0.573148	0.106496	
98679	2.67042	2.7568	0.204936	0.140086	0.0252509	1.61133e-10	-0.12809	0.554616	0.383651	
98829	2.62908	2.74941	0.193991	0.241877	0.0763155	1.33368e-10	-0.0524898	0.602791	0.44456	
99099	2.53541	2.76222	0.190009	0.359069	0.157181	5.32244e-11	-0.0968782	0.637573	0.0682364	
99279	2.5144	2.82301	0.183437	0.40212	0.215705	1.10895e-10	-0.205029	0.767098	0.264036	
99399	2.45002	2.8531	0.173617	0.458411	0.289159	4.63415e-11	-0.254347	0.736484	0.128726	
99429	2.45002	2.8531	0.173617	0.450377	0.315572	8.89631e-11	-0.224233	0.721143	0.37068	
99459	2.45002	2.8531	0.173617	0.468812	0.309312	7.08114e-11	-0.222928	0.660099	0.262265	
99519	2.36462	2.91129	0.152105	0.468657	0.340917	7.63855e-11	-0.213859	0.7549	0.424364	
99729	2.24969	2.99841	0.132013	0.417077	0.312006	3.4714e-10	-0.331602	0.910313	0.428568	
99760	2.24969	2.99841	0.132013	0.407716	0.317266	1.47922e-10	-0.337696	0.832811	0.379286	
99969	2.146	3.07525	0.116031	0.309569	0.277755	5.39146e-11	-0.446384	0.880572	0.299525	
100000	2.146	3.07525	0.116031	0.309289	0.277687	2.69849e-10	-0.350331	0.849984	0.310171	
