MS	x	y	z	vx	vy	vz	ax	ay	az	
6279	0.522825	-0.823518	1.08184	0	0	0	-117337	-43459.8	-67410.4	
6309	0.522825	-0.823518	1.08184	-0.000154884	-5.73669e-05	-8.89817e-05	-117337	-43459.8	-67410.4	
6370	0.525689	-0.821032	1.07984	0.00187104	-0.000237494	4.31021e-10	101815	26564.1	34738	
6489	0.52364	-0.82314	1.07932	0.00188132	0.000845991	3.59567e-10	-171520	-157123	15813.2	
6520	0.525987	-0.822954	1.07818	0.00173725	0.000714007	1.32835e-05	98951.3	7846.39	-48059.6	
6579	0.52596	-0.82297	1.07847	1.3416e-05	0.00154019	6.51376e-10	-1179.46	-679.083	12171.9	
6609	0.52596	-0.82297	1.07847	1.06207e-05	0.00153858	2.8848e-05	-1179.46	-679.083	12171.9	
6639	0.524006	-0.819534	1.07722	9.98377e-06	0.00153822	3.54208e-05	-85646.9	150611	-54642.8	
6729	0.521713	-0.822964	1.07942	-0.000135858	0.000318659	5.89452e-10	-107664	-67232.3	165982	
6760	0.521713	-0.822964	1.07942	-0.000394251	0.000157301	0.000398358	-107664	-67232.3	165982	
6789	0.521581	-0.822173	1.08211	-0.00045885	0.000116962	0.000497947	-6023.24	36267.4	122953	
6820	0.521581	-0.822173	1.08211	-0.000468065	0.000172451	0.000686064	-6023.24	36267.4	122953	
6940	0.524225	-0.82099	1.08198	0.00178601	-0.000640506	3.72973e-10	-72467	-65764.4	44501.8	
6969	0.521692	-0.823672	1.08138	0.00176427	-0.000660236	1.33509e-05	33476.8	-32843.1	50753	
7000	0.523464	-0.819121	1.07841	0.00178637	-0.000681912	4.68479e-05	86275.4	221609	-144639	
7029	0.522332	-0.821821	1.08079	0.00183296	-0.000562243	-3.1257e-05	-55639	-132734	117138	
7060	0.522332	-0.821821	1.08079	0.00175117	-0.000757363	0.000140935	-55639	-132734	117138	
7120	0.521895	-0.822293	1.07428	0.000948362	0.0018395	1.7877e-10	-190879	-192405	-134604	
7149	0.521399	-0.823726	1.07486	0.000919731	0.00181064	-2.01904e-05	-25265.5	-73113.2	29645.5	
7179	0.519567	-0.815858	1.07955	0.000906845	0.00177335	-5.07116e-06	-94016.7	403559	240582	
7209	0.521587	-0.819406	1.07747	0.000836333	0.00207602	0.000175365	104273	-183115	-107325	
7239	0.521667	-0.820892	1.07662	0.000883256	0.00199362	0.000127069	4157.92	-77520.5	-44485.6	
7269	0.518674	-0.823476	1.07506	0.000884254	0.00197502	0.000116392	-157789	-136261	-82077.7	
7300	0.521304	-0.820512	1.07684	0.00078958	0.00189326	6.71458e-05	139371	157099	94546.4	
7329	0.521305	-0.820977	1.07516	0.00082721	0.00193568	9.26733e-05	54.8927	-24896.4	-90278.6	
7359	0.523551	-0.817835	1.07436	0.00082722	0.0019312	7.64232e-05	121453	169842	-43122.7	
7389	0.520864	-0.819355	1.07654	0.000881874	0.00200762	5.70179e-05	-146088	-82646.9	118461	
7420	0.523176	-0.817539	1.07793	0.000781073	0.0019506	0.000138756	126490	99357.7	75927.2	
7509	0.520688	-0.819982	1.0796	0.000305227	-0.00111005	2.84046e-10	43005.1	119289	-23383.9	
7539	0.521819	-0.821814	1.08016	0.00033748	-0.00102059	-1.75377e-05	63880	-103425	31439.2	
7570	0.521819	-0.821814	1.08016	0.000444799	-0.00119434	3.52801e-05	63880	-103425	31439.2	
7629	0.522162	-0.81891	1.07962	0.000625817	0.000880487	3.11179e-10	-77083.7	-59269.4	8820.68	
7659	0.522533	-0.819383	1.08078	0.000591129	0.000853815	3.96962e-06	21666.5	-27589.9	67363.9	
7690	0.523023	-0.817584	1.07898	0.000601529	0.000840572	3.63043e-05	28895.5	105935	-105518	
7719	0.525243	-0.817313	1.08085	0.000604997	0.000853284	2.36421e-05	132117	16120.1	111227	
7750	0.523706	-0.817826	1.08258	0.000668413	0.000861022	7.70312e-05	-91921.8	-30694.5	103202	
7779	0.523043	-0.818658	1.0785	0.000632564	0.000849051	0.00011728	-39975.3	-50192.4	-246143	
7809	0.525822	-0.816663	1.08163	0.000613375	0.000824959	-8.68365e-07	168755	121191	190330	
7839	0.525822	-0.816663	1.08163	0.000846258	0.000992203	0.000261787	168755	121191	190330	
7869	0.52529	-0.814897	1.07916	0.000972824	0.0010831	0.000404535	-32737	108640	-152219	
7929	0.522993	-0.816899	1.07863	0.00126463	0.000757245	3.66284e-10	-18603.6	170521	117683	
7960	0.523388	-0.818488	1.08182	0.00124788	0.000910714	0.000105915	24805.7	-99896.2	200612	
7989	0.52374	-0.819744	1.0829	0.00125905	0.000865761	0.00019619	22381.4	-79867.1	68544.7	
8020	0.52345	-0.822541	1.08191	0.0012718	0.000820237	0.000235261	-18556.6	-179043	-63763.1	
8049	0.52345	-0.822541	1.08191	0.00124508	0.000562414	0.000143442	-18556.6	-179043	-63763.1	
8110	0.522898	-0.822381	1.07892	0.000539552	0.000158641	2.30407e-10	-164546	-185536	-66459.8	
8139	0.524907	-0.816983	1.07901	0.000455634	6.40176e-05	-3.38942e-05	132509	356073	6383.25	
8169	0.523597	-0.819917	1.07857	0.000495386	0.00017084	-3.19793e-05	-87180.9	-195273	-29145	
8199	0.523105	-0.818618	1.07941	0.000492771	0.000164981	-3.28536e-05	-33101.6	87240.2	56182.2	
8259	0.521069	-0.82358	1.08057	0.00168486	0.000878594	3.17104e-10	-137787	-335908	78579.9	
8290	0.522525	-0.823882	1.07994	0.00166833	0.000838285	9.4299e-06	36821.3	-34017.4	-14655.6	
8319	0.522525	-0.823882	1.07994	0.00170478	0.000804608	-5.07918e-06	36821.3	-34017.4	-14655.6	
8350	0.517215	-0.826163	1.07617	0.00172688	0.000784197	-1.38726e-05	-368483	-158256	-261751	
8379	0.517409	-0.825129	1.0757	0.0015279	0.000698739	-0.000155218	13548.4	72266.9	-32806.6	
8409	0.516028	-0.823171	1.07357	0.00153155	0.000718251	-0.000164076	-97408	138131	-150032	
8439	0.517327	-0.822783	1.07759	0.00147895	0.000792842	-0.000245093	92077.3	27520.2	284778	
8469	0.517327	-0.822783	1.07759	0.00161154	0.000832471	0.000164987	92077.3	27520.2	284778	
8500	0.517951	-0.82324	1.07762	0.00169165	0.000856413	0.000412744	44752.5	-32766.6	2178.65	
8529	0.518454	-0.823458	1.07723	0.0017279	0.000829872	0.000414509	36382.9	-15786.5	-27984.8	
8559	0.518454	-0.823458	1.07723	0.00179012	0.000802877	0.000366655	36382.9	-15786.5	-27984.8	
8589	0.520227	-0.822186	1.07632	0.0017923	0.00080193	0.000364975	-106710	-110419	-31026.2	
8649	0.518757	-0.825631	1.07627	0.000634174	0.000479892	3.90775e-10	-144654	-540144	-74747.9	
8680	0.518757	-0.825631	1.07627	0.000430212	-0.00028171	-0.000105394	-144654	-540144	-74747.9	
8709	0.517554	-0.825074	1.08	0.000408513	-0.000362732	-0.000116606	184774	89056.6	93106.5	
8740	0.521091	-0.816642	1.07748	0.000502748	-0.000317313	-6.9122e-05	269110	641591	-191619	
8769	0.518754	-0.821935	1.07764	0.000639994	9.8983e-06	-0.000166848	-178945	-405415	12469.7	
8799	0.52394	-0.819485	1.07786	0.000570205	-0.000148214	-0.000161984	400293	189091	17131.9	
8829	0.519481	-0.82777	1.07911	0.000630249	-0.00011985	-0.000159415	-347204	-645113	97366.6	
8859	0.519883	-0.825886	1.08206	0.000463591	-0.000429504	-0.000112679	31450.8	147368	230508	
8889	0.524469	-0.825568	1.08156	0.000470196	-0.000398557	-6.4272e-05	361772	25068.6	-39741	
8919	0.522019	-0.826993	1.08006	0.000665553	-0.00038502	-8.57321e-05	-194103	-112857	-118560	
8979	0.521274	-0.825576	1.08134	0.00126571	-6.94162e-05	5.17597e-10	-59509.9	113164	101900	
9009	0.519719	-0.82503	1.08047	0.0012425	-2.5282e-05	3.97416e-05	-125793	44174.4	-70433.3	
9039	0.519719	-0.82503	1.08047	0.00108023	3.1703e-05	-5.11175e-05	-125793	44174.4	-70433.3	
9069	0.520287	-0.832843	1.07879	0.00101607	5.42319e-05	-8.70385e-05	46538.5	-640130	-137048	
9099	0.524666	-0.820362	1.07494	0.00102305	-4.17876e-05	-0.000107596	374307	581587	-286164	
9160	0.51635	-0.820732	1.0777	0.0006299	0.000767253	5.55929e-10	-691562	-30769	230128	
9189	0.518061	-0.825143	1.08237	0.000546913	0.00076356	2.7616e-05	120857	-307084	-184585	
9220	0.520998	-0.825656	1.08231	0.000586795	0.000662223	-3.32972e-05	249052	-43550.4	-4557.23	
9279	0.520059	-0.824563	1.07987	0.00192327	-0.000239469	5.32503e-10	-79942.1	93123.1	-208310	
9309	0.522129	-0.821373	1.07755	0.0018729	-0.000180802	-0.000131234	178573	275229	-200133	
9339	0.518918	-0.816171	1.0796	0.00191576	-0.000114747	-0.000179266	-279616	452909	178945	
9370	0.520934	-0.819602	1.0776	0.0017396	0.000170586	-6.6531e-05	176238	-299898	-175208	
9399	0.523543	-0.819152	1.07993	0.00186649	-4.53406e-05	-0.000192681	229344	39527.6	204956	
9429	0.523241	-0.820904	1.08102	0.00198346	-2.51816e-05	-8.81533e-05	-26825.5	-155219	97063.5	
9459	0.521758	-0.819599	1.08273	0.00196012	-0.000160222	-3.7081e-06	-131809	116053	151581	
9489	0.522306	-0.818595	1.08225	0.00186917	-8.01459e-05	0.000100883	49077.7	90010.6	-43227.8	
9520	0.522306	-0.818595	1.08225	0.00194868	6.56712e-05	3.0854e-05	49077.7	90010.6	-43227.8	
9549	0.523664	-0.816409	1.07797	0.00195604	7.91728e-05	2.43699e-05	123651	199093	-389567	
9579	0.520841	-0.819999	1.07702	0.0020191	0.00018071	-0.000174309	-258042	-328203	-87170.7	
9609	0.521714	-0.820494	1.07866	0.00187202	-6.36583e-06	-0.000223996	80264.5	-45524	151544	
9639	0.517111	-0.823522	1.07788	0.00192018	-3.36802e-05	-0.00013307	-425903	-280184	-72650.6	
9669	0.515863	-0.827317	1.08187	0.00169019	-0.00018498	-0.000172301	-116256	-353521	371607	
9699	0.513946	-0.830457	1.07815	0.00166229	-0.000269825	-8.31156e-05	-180048	-294864	-348848	
9729	0.513946	-0.830457	1.07815	0.00145703	-0.00060597	-0.000480802	-180048	-294864	-348848	
9759	0.52756	-0.812798	1.07527	0.00140302	-0.000694429	-0.000585456	-258479	-441826	159735	
9790	0.526135	-0.811922	1.07435	0.00139526	-0.000707684	-0.000580664	-136528	83916.4	-87708.5	
9819	0.525221	-0.813862	1.07401	0.00137069	-0.000692579	-0.000596452	-88000.1	-186825	-33460.2	
9850	0.52861	-0.810516	1.07531	0.00134693	-0.000743022	-0.000605486	328208	323996	125893	
9879	0.52861	-0.810516	1.07531	0.00172109	-0.000373667	-0.000461968	328208	323996	125893	
9909	0.527632	-0.810628	1.07636	0.00188847	-0.000208429	-0.000397763	-95633.4	-10954	103270	
9939	0.527047	-0.811213	1.07402	0.00183109	-0.000215001	-0.000335801	-57584.6	-57479.3	-229871	
9969	0.52659	-0.811065	1.07304	0.00181209	-0.000233969	-0.000411658	-45307.7	14591.6	-97818.8	
9999	0.52659	-0.811065	1.07304	0.00175636	-0.000216022	-0.000531975	-45307.7	14591.6	-97818.8	
10029	0.52659	-0.811065	1.07304	0.00165986	-0.000184942	-0.000740329	-45307.7	14591.6	-97818.8	
10060	0.526623	-0.805152	1.07598	0.00164762	-0.000181002	-0.00076674	-333963	-80931.6	-51511.3	
10089	0.526402	-0.80784	1.07635	0.0014773	-0.000222277	-0.000793011	-22372.4	-272636	37243.3	
10149	0.521387	-0.806765	1.07734	0.0016415	0.00042671	2.51677e-10	-400568	308038	203722	
10179	0.521922	-0.807315	1.07533	0.00132906	0.00066698	0.000158903	55139.8	-56690.3	-207522	
10210	0.517045	-0.816296	1.07783	0.00137041	0.000624462	3.26174e-06	-505855	-931630	259939	
10239	0.518275	-0.812448	1.07832	0.000991023	-7.426e-05	0.000198216	128248	401421	50397.4	
10270	0.515998	-0.813452	1.07886	0.00106028	0.000142507	0.000225431	-239285	-105501	57086.7	
10299	0.517775	-0.811635	1.07786	0.000923884	8.23717e-05	0.00025797	187762	191950	-105910	
10330	0.521212	-0.808896	1.09222	0.000997111	0.000157232	0.000216665	365856	291582	1.52929e+06	
10359	0.515839	-0.817004	1.082	0.0011837	0.000305939	0.0009966	-574708	-867187	-1.09339e+06	
10389	0.515334	-0.817775	1.08239	0.000890597	-0.000136326	0.000438969	-54263	-82977.5	41619	
10419	0.519748	-0.813616	1.08071	0.000871062	-0.000166198	0.000453952	478016	450444	-181229	
10450	0.518082	-0.816244	1.08027	0.00117221	0.000117581	0.000339778	-181190	-285853	-48823.9	
10480	0.518082	-0.816244	1.08027	0.000894991	-0.000319773	0.000265077	-181190	-285853	-48823.9	
10509	0.518082	-0.816244	1.08027	0.000460134	-0.00100582	0.0001479	-181190	-285853	-48823.9	
10539	0.520293	-0.822722	1.08336	0.000373163	-0.00114303	0.000124464	244817	-717311	342284	
10569	0.510029	-0.835842	1.08313	0.00041723	-0.00127215	0.000186075	-428428	-559952	-133062	
10599	0.510831	-0.835888	1.08276	0.000198732	-0.00155772	0.000118214	89797.5	-5203.99	-41558.9	
10630	0.515377	-0.834029	1.08235	0.00023914	-0.00156006	9.95122e-05	512206	209449	-47002.5	
10659	0.514056	-0.835715	1.08222	0.000607929	-0.00140926	6.56704e-05	-149361	-190689	-13704.2	
10690	0.51198	-0.837315	1.08236	0.00050487	-0.00154083	5.62145e-05	-236314	-182004	15715.4	
10719	0.514879	-0.836187	1.08377	0.000426886	-0.0016009	6.14006e-05	332437	129340	161280	
10750	0.515348	-0.834083	1.08113	0.000546564	-0.00155433	0.000119461	54047.3	242552	-304342	
10810	0.514719	-0.834546	1.08273	0.00108471	0.00136318	2.1724e-10	-166449	-307568	213166	
10839	0.514719	-0.834546	1.08273	0.000899947	0.00102177	0.000236615	-166449	-307568	213166	
10870	0.514586	-0.834316	1.08232	0.000755136	0.000754191	0.00042207	-15641.2	27035.6	-48631.2	
10929	0.513366	-0.836563	1.08243	0.000574734	0.000153276	3.12393e-10	-162245	-146760	-102327	
10960	0.513969	-0.829673	1.07961	0.000428714	2.11919e-05	-9.20944e-05	71979.9	823182	-336796	
10989	0.513969	-0.829673	1.07961	0.000556118	0.00147822	-0.000688224	71979.9	823182	-336796	
11049	0.511385	-0.829655	1.08094	0.000412775	0.00151153	1.9882e-10	-258073	-626467	268360	
11079	0.512545	-0.828029	1.08303	0.000304385	0.00124841	0.000112711	142025	199146	256353	
11110	0.510177	-0.833509	1.08018	0.000372557	0.001344	0.00023576	-291444	-674495	-350830	
11139	0.510381	-0.831718	1.07955	0.000215177	0.000979773	4.63121e-05	25184.7	221520	-77794.5	
11169	0.513563	-0.824427	1.08412	0.000230288	0.00111268	-3.64625e-07	395587	906267	568029	
11229	0.51571	-0.821686	1.08409	0.000822709	0.000270283	1.56317e-10	286114	352204	202228	
11260	0.51571	-0.821686	1.08409	0.00120038	0.000735192	0.000266942	286114	352204	202228	
11320	0.514609	-0.823427	1.08373	0.000843552	-0.000198265	3.18135e-10	-26669.5	-69445	-360352	
11349	0.516096	-0.822447	1.08434	0.000820349	-0.000258682	-0.000313506	190565	125655	78395.7	
11379	0.51475	-0.822306	1.09018	0.000986141	-0.000149362	-0.000245302	-173388	18152.3	753097	
11409	0.515121	-0.826665	1.08474	0.000835293	-0.00013357	0.000409893	48123.5	-564469	-705390	
11439	0.514323	-0.827882	1.08179	0.000852617	-0.000336779	0.000155952	-104298	-159003	-384405	
11470	0.514323	-0.827882	1.08179	0.000718073	-0.000541893	-0.00033993	-104298	-159003	-384405	
11529	0.516029	-0.820446	1.08206	0.000856296	0.000338351	2.54314e-10	259572	402220	419534	
11559	0.517648	-0.82801	1.08384	0.00092638	0.000446951	0.000113274	1205.14	-192648	-64456.1	
11590	0.517944	-0.82735	1.08281	0.000927067	0.000337141	7.65344e-05	39714.7	88382.4	-137499	
11619	0.517944	-0.82735	1.08281	0.000984256	0.000464412	-0.000121464	39714.7	88382.4	-137499	
11769	0.516841	-0.826915	1.07851	0.000893215	-0.000425477	2.71481e-10	-54185.2	127840	-192934	
11799	0.513466	-0.828739	1.08019	0.000888338	-0.000413972	-1.73638e-05	-469684	-253853	233054	
11829	0.513973	-0.825425	1.0784	0.000733343	-0.000497743	5.9544e-05	70798.9	462866	-249767	
11859	0.514736	-0.831003	1.07979	0.00076945	-0.000261682	-6.78371e-05	107068	-782163	194205	
11890	0.515319	-0.832346	1.07938	0.00080157	-0.000496331	-9.57546e-06	82269.3	-189539	-56993.1	
11919	0.51477	-0.829772	1.08205	0.000828719	-0.000558878	-2.83832e-05	-77923.2	364966	378265	
11949	0.51477	-0.829772	1.08205	0.000732874	-0.00010997	0.000436883	-77923.2	364966	378265	
12009	0.515414	-0.827381	1.08241	0.000465862	6.02936e-05	1.95548e-10	36368.5	10890.5	-230160	
12039	0.515742	-0.827119	1.0814	0.00049532	6.91149e-05	-0.000186429	47334.9	37800.8	-144928	
12069	0.515025	-0.831836	1.08224	0.000520881	8.95273e-05	-0.00026469	-104118	-685015	120713	
12129	0.515441	-0.835092	1.08197	6.79807e-05	0.000210484	3.8909e-10	67864.7	-445793	11837.5	
12160	0.513974	-0.832684	1.08373	0.000116843	-0.000110487	8.52339e-06	-216039	354647	260001	
12249	0.514775	-0.828664	1.08022	0.000139079	0.00207705	1.90214e-10	154411	50135	97590.2	
12279	0.527804	-0.806405	1.07179	0.000213196	0.00210112	4.68435e-05	1.95942e+06	3.34737e+06	-1.2681e+06	
12310	0.526392	-0.813093	1.07263	0.000977371	0.00340659	-0.000447715	-213563	-1.01129e+06	127987	
12339	0.524356	-0.81562	1.0713	0.000926116	0.00316388	-0.000416998	-309512	-384318	-203042	
12370	0.525265	-0.824224	1.06952	0.000768265	0.00296788	-0.00052055	138706	-1.31294e+06	-271386	
12429	0.527146	-0.820087	1.06864	0.00151175	0.00105029	2.55615e-10	289024	635787	-135130	
12459	0.527146	-0.820087	1.06864	0.00204933	0.00223286	-0.000251341	289024	635787	-135130	
12490	0.52619	-0.814513	1.07968	0.00209269	0.00232823	-0.000271611	839250	546275	1.4069e+06	
12519	0.525764	-0.807804	1.08958	0.00244517	0.00255766	0.000319288	-66613.7	1.04913e+06	1.54811e+06	
12550	0.524575	-0.815826	1.07536	0.00239521	0.00334451	0.00148037	-186506	-1.25845e+06	-2.23106e+06	
12579	0.523456	-0.822113	1.07043	0.0023001	0.0027027	0.000342526	-176617	-992125	-777702	
12610	0.519061	-0.826808	1.07092	0.00217823	0.00201813	-0.000194088	-696304	-743735	77686	
12639	0.514139	-0.834917	1.06723	0.00178134	0.00159421	-0.000149807	-783883	-1.29149e+06	-587432	
12670	0.521914	-0.816647	1.07022	0.00142859	0.00101303	-0.000414152	1.24517e+06	2.92588e+06	478370	
12699	0.527278	-0.8093	1.06576	0.00202627	0.00241746	-0.000184534	862815	1.18179e+06	-716801	
12759	0.531527	-0.801971	1.06909	0.000501726	0.000773868	5.08084e-10	687351	1.1855e+06	539002	
12819	0.520772	-0.812064	1.07222	1.36545e-06	-0.000676284	2.55573e-10	-1.69196e+06	-1.45966e+06	238094	
12850	0.526862	-0.812133	1.06252	-0.00121685	-0.00172724	0.000171428	1.0018e+06	-11337.4	-1.59528e+06	
12879	0.523618	-0.797146	1.06131	-0.000465496	-0.00173574	-0.00102503	-535996	2.47628e+06	-199672	
12909	0.493088	-0.807312	1.06384	-0.000722774	-0.000547128	-0.00112088	-5.075e+06	-1.68983e+06	420535	
12939	0.493088	-0.807312	1.06384	-0.00772628	-0.0028791	-0.000540539	-5.075e+06	-1.68983e+06	420535	
12970	0.495338	-0.82792	1.06009	-0.0110758	-0.00399439	-0.000262986	377219	-3.45506e+06	-629185	
12999	0.49407	-0.818713	1.06039	-0.0110079	-0.0046163	-0.000376239	136565	-894290	-76159.3	
13029	0.494829	-0.826151	1.05921	-0.0109464	-0.00501873	-0.000410511	128544	-1.25981e+06	-200557	
13059	0.494576	-0.822148	1.0599	-0.0109117	-0.00535888	-0.000464662	-43188.6	681834	117575	
13089	0.494576	-0.822148	1.0599	-0.0109622	-0.00456113	-0.000327099	-43188.6	681834	117575	
13119	0.493456	-0.810184	1.061	-0.0109959	-0.0040293	-0.00023539	-192031	2.05094e+06	188806	
13179	0.493173	-0.807238	1.06172	0.00215061	-0.000165661	4.09753e-10	-249807	2.30351e+06	219981	
13209	0.493944	-0.828342	1.07116	0.00210565	0.00024897	3.95969e-05	212464	-2.78038e+06	-323867	
13239	0.493944	-0.828342	1.07116	0.00233511	-0.00275384	-0.000310179	212464	-2.78038e+06	-323867	
13269	0.492163	-0.813391	1.07294	0.00243709	-0.00408842	-0.000465635	-312780	2.62591e+06	313843	
13299	0.494937	-0.837157	1.07047	0.00223066	-0.00235532	-0.000258499	488955	-4.18933e+06	-435796	
13329	0.495071	-0.842209	1.06879	0.00264138	-0.00587436	-0.000624567	23709.9	-893841	-297766	
13359	0.495377	-0.841915	1.07013	0.00265205	-0.00627659	-0.000758562	54385.1	52420	237855	
13389	0.493327	-0.841162	1.07039	0.00268957	-0.00624042	-0.000594442	-366262	134469	47884.4	
13419	0.493327	-0.841162	1.07039	0.00210722	-0.00602661	-0.000518306	-366262	134469	47884.4	
13449	0.490979	-0.818569	1.07264	0.00190943	-0.005954	-0.000492448	-423435	4.07568e+06	405055	
13479	0.490691	-0.809426	1.07373	0.001757	-0.00448676	-0.000346628	-52335.1	1.6581e+06	197095	
13509	0.492808	-0.826705	1.07177	0.00173188	-0.00369087	-0.000252023	385481	-3.14592e+06	-355172	
13569	0.492493	-0.823438	1.07214	0.00105985	-7.24822e-05	2.98845e-10	1425.27	228008	19083.2	
13599	0.494211	-0.836951	1.07052	0.00105994	-5.88017e-05	1.14529e-06	237851	-1.84391e+06	-237455	
13630	0.494211	-0.836951	1.07052	0.00129541	-0.00188427	-0.000233936	237851	-1.84391e+06	-237455	
13690	0.493241	-0.829948	1.07121	0.000659354	0.000404978	2.91047e-10	-162557	1.2244e+06	108412	
13719	0.49327	-0.829885	1.07124	0.000571573	0.00106615	5.85427e-05	5480.78	11818.2	4842.67	
13750	0.491865	-0.816574	1.07286	0.00057404	0.00107147	6.07219e-05	-265105	2.51111e+06	306832	
13779	0.491668	-0.81579	1.07293	0.000494508	0.0018248	0.000152772	-37325.9	148615	12553.8	
13810	0.505619	-0.819924	1.06701	0.000473232	0.00190951	0.000159927	2.6534e+06	-786315	-1.12635e+06	
13839	0.506458	-0.826099	1.06645	0.00174687	0.00153208	-0.000380721	160255	-1.1799e+06	-106985	
13870	0.503917	-0.807316	1.06819	0.00182379	0.000965731	-0.000432074	-487644	3.6051e+06	334820	
13899	0.503917	-0.807316	1.06819	0.00116547	0.00583262	1.99331e-05	-487644	3.6051e+06	334820	
13929	0.505004	-0.815232	1.06766	0.000960659	0.00734676	0.000160558	210462	-1.53266e+06	-102553	
13959	0.505262	-0.817447	1.06748	0.00111851	0.00619727	8.36425e-05	50015.4	-430140	-35296.5	
13989	0.505386	-0.817416	1.06758	0.00115452	0.00588757	5.8229e-05	24138.3	6030.04	19870.1	
14019	0.506232	-0.813518	1.06827	0.00115814	0.00588848	6.12096e-05	224332	506042	121997	
14050	0.506232	-0.813518	1.06827	0.00140042	0.006435	0.000192967	224332	506042	121997	
14079	0.503574	-0.816263	1.06949	0.00153502	0.00673863	0.000266165	-525422	-542542	240925	
14110	0.503579	-0.815488	1.06963	0.00140891	0.00660842	0.000323987	1027.91	154223	27262.7	
14139	0.503305	-0.813503	1.06989	0.00140925	0.00665931	0.000332984	-54717.4	396081	51696.7	
14169	0.501943	-0.817115	1.06797	0.00138463	0.00683755	0.000356247	-272683	-723528	-384610	
14199	0.50182	-0.816618	1.06797	0.00131919	0.0066639	0.000263941	-24925.9	100022	693.949	
14230	0.501778	-0.816279	1.06801	0.00131321	0.0066879	0.000264107	-8373.23	68530.5	7421.94	
14259	0.501778	-0.816279	1.06801	0.00130391	0.00676397	0.000272346	-8373.23	68530.5	7421.94	
14289	0.502641	-0.822844	1.06734	0.00129989	0.00679687	0.000275908	175849	-1.33737e+06	-136983	
14319	0.502063	-0.818884	1.06794	0.00137375	0.00623517	0.000218375	-118331	810324	123133	
14379	0.502461	-0.820814	1.06771	0.000612177	-0.000406245	2.99931e-10	24991.6	-164885	-49331.3	
14409	0.502461	-0.820814	1.06771	0.000657912	-0.000707984	-9.0276e-05	24991.6	-164885	-49331.3	
14439	0.502563	-0.822215	1.06729	0.000659411	-0.000717877	-9.32359e-05	21245.6	-291946	-86846	
14469	0.503509	-0.817153	1.06937	0.000668335	-0.000840494	-0.000129711	197536	1.05767e+06	433679	
14499	0.501871	-0.821865	1.06842	0.000739447	-0.000459732	2.64132e-05	-343716	-988967	-200033	
14559	0.501793	-0.821019	1.06858	0.00075126	0.000652014	1.67237e-10	9828.99	-996372	-245666	
14620	0.501561	-0.819759	1.06872	0.000692633	-0.000276732	1.37544e-10	64660.7	-592272	-84397.2	
14649	0.501447	-0.820118	1.06872	0.000708151	-0.000418878	-2.02552e-05	-24345.8	-77099.9	1557.17	
14680	0.501447	-0.820118	1.06872	0.000679667	-0.000509084	-1.84333e-05	-24345.8	-77099.9	1557.17	
14740	0.499268	-0.817982	1.06967	0.00169807	0.00162862	4.28748e-10	-463264	269206	165202	
14769	0.500488	-0.81819	1.06944	0.00133673	0.0018386	0.000128858	265070	-45222.5	-47995.8	
14800	0.502241	-0.821883	1.06889	0.00147191	0.00181554	0.00010438	383051	-807113	-120285	
14829	0.502466	-0.823333	1.0688	0.00171323	0.00130706	2.86003e-05	49430.8	-318007	-19727.4	
14889	0.501018	-0.821533	1.06906	0.000283806	-0.000274462	4.50051e-10	-319653	397431	56491	
14919	0.501777	-0.8184	1.06918	6.32452e-05	-2.34817e-07	3.89792e-05	168411	695012	25769.5	
14950	0.501445	-0.824077	1.06861	0.000154187	0.000375072	5.28948e-05	-73882.6	-1.2656e+06	-125858	
14979	0.501848	-0.821305	1.06826	0.000129806	-4.25756e-05	1.13617e-05	-16848.8	206025	-7741.08	
15039	0.501292	-0.818363	1.06994	-4.03424e-05	0.000203969	4.60632e-10	-125274	661902	377886	
15069	0.502	-0.822713	1.06954	-0.00010799	0.000561396	0.000204059	160531	-985358	-90255.1	
15099	0.500094	-0.823248	1.06771	3.16715e-05	-0.000295865	0.000125537	-432862	-121575	-415380	
15129	0.501878	-0.819454	1.07004	-4.62435e-05	-0.000317749	5.07683e-05	407988	867776	532772	
15159	0.502222	-0.821313	1.07108	0.00016183	0.000124817	0.000322482	78815.3	-426192	238838	
15189	0.502107	-0.820625	1.07021	0.000176017	4.81025e-05	0.000365473	-26535.9	158528	-201316	
15220	0.50123	-0.817843	1.06997	0.000161687	0.000133708	0.000256762	-202682	642998	-54625.2	
15280	0.501658	-0.819407	1.0688	0.00148984	0.000352305	1.11174e-10	-455.915	237857	112720	
15309	0.502053	-0.817223	1.06828	0.00148966	0.000445069	4.39607e-05	92476.5	510996	-120585	
15340	0.502053	-0.817223	1.06828	0.00161173	0.00111958	-0.000115212	92476.5	510996	-120585	
15369	0.503888	-0.818214	1.06923	0.00169218	0.00156415	-0.000220121	431713	-233268	224173	
15429	0.502453	-0.821034	1.06766	0.00149664	-0.00029163	1.13085e-10	45682.9	-284566	-44664.7	
15489	0.502606	-0.822338	1.06751	0.000940221	-0.000256255	2.77023e-10	33592.3	-275148	-412899	
15519	0.508936	-0.812042	1.06467	0.000967431	-0.000479124	-0.000334448	1.51919e+06	2.47105e+06	-681712	
15549	0.509115	-0.813841	1.0644	0.00219798	0.00152243	-0.000886635	43227.9	-433513	-64982.1	
15579	0.509934	-0.814771	1.06396	0.00221613	0.00134035	-0.000913927	198555	-225360	-106385	
15639	0.510199	-0.816256	1.06409	0.00119945	0.000984478	1.42784e-10	48778.3	-326327	-12889.1	
15670	0.510188	-0.817019	1.06401	0.00121993	0.00084742	-5.41329e-06	-2830.63	-186936	-20362.3	
15699	0.509985	-0.814883	1.06405	0.00121883	0.000774515	-1.33546e-05	-49771.9	525424	10426.4	
15729	0.510064	-0.815156	1.06426	0.00120689	0.000900617	-1.08522e-05	19415.4	-67395.6	52019.8	
15759	0.509776	-0.812151	1.06456	0.00121329	0.000878376	6.31431e-06	-71357.4	745263	73863.4	
15789	0.509776	-0.812151	1.06456	0.00112552	0.00179505	9.71663e-05	-71357.4	745263	73863.4	
15820	0.509594	-0.811644	1.0646	0.00108699	0.00219749	0.000137053	-45545.7	126440	11325.4	
15849	0.509731	-0.813391	1.06432	0.00106103	0.00226956	0.000143508	34295.1	-437656	-69897	
15879	0.509731	-0.813391	1.06432	0.00111144	0.00162621	4.07594e-05	34295.1	-437656	-69897	
15909	0.509731	-0.813391	1.06432	0.00119272	0.000588964	-0.000124897	34295.1	-437656	-69897	
15969	0.508871	-0.819221	1.06399	0.000746209	0.000588038	2.20832e-10	-42396.3	337962	67748.8	
16029	0.508754	-0.818078	1.06426	0.0012737	-0.000347899	3.79234e-10	-83900.4	576372	106858	
16060	0.508189	-0.816832	1.06457	0.00120826	0.000101671	8.33497e-05	-145252	320242	79491.7	
16089	0.508129	-0.816659	1.06452	0.00109932	0.000341852	0.000142968	-15561.4	44629.2	-13915.1	
16120	0.50815	-0.816577	1.06453	0.00108532	0.000382019	0.000130445	5557.55	21314	2266.42	
16179	0.507724	-0.818299	1.06422	0.00125824	0.00164319	2.34333e-10	-186739	59862.5	-2889.91	
16209	0.507901	-0.819791	1.06408	0.00111258	0.00168988	-2.2539e-06	46256.3	-390904	-37219.7	
16239	0.508554	-0.819045	1.06405	0.0011445	0.00142016	-2.79355e-05	171589	196360	-8571.48	
16269	0.508976	-0.819309	1.06378	0.00125775	0.00154975	-3.35927e-05	111622	-69719.2	-70604.3	
16300	0.508905	-0.818351	1.06389	0.00134816	0.00149328	-9.07821e-05	-18891.4	253751	29372.9	
16329	0.50839	-0.818294	1.0641	0.00134419	0.00154657	-8.46138e-05	-137069	15134.8	55502.5	
16359	0.50839	-0.818294	1.0641	0.00119205	0.00156337	-2.3006e-05	-137069	15134.8	55502.5	
16390	0.509334	-0.814145	1.06453	0.00116326	0.00156655	-1.13504e-05	253269	1.11356e+06	115211	
16419	0.50893	-0.811405	1.06471	0.00130003	0.00216787	5.08635e-05	-108587	736977	49477.5	
16450	0.509414	-0.810488	1.06446	0.00125768	0.00245529	7.01597e-05	130742	247846	-68566.5	
16479	0.509157	-0.808634	1.06469	0.00132043	0.00257426	3.72478e-05	-69881.6	502511	63255.6	
16509	0.50946	-0.811207	1.06453	0.00130157	0.00270994	5.43268e-05	82746.9	-700464	-42723.6	
16539	0.50967	-0.812653	1.06431	0.00135121	0.00228966	2.86926e-05	57206.2	-394675	-60459.2	
16569	0.50984	-0.812661	1.0644	0.00139583	0.00198181	-1.84655e-05	46361.9	-2166.44	22734.9	
16599	0.509869	-0.812916	1.06433	0.00143756	0.00197986	1.99594e-06	8079.41	-69927.8	-18664.5	
16629	0.50968	-0.811237	1.06456	0.00144386	0.00192532	-1.25623e-05	-52013.1	462573	63180.8	
16689	0.508134	-0.813043	1.06453	0.000115139	0.00109046	3.31067e-10	26686.3	-255310	-14241.3	
16719	0.507847	-0.81085	1.0648	0.000123946	0.0010062	-4.6993e-06	-80153.5	612240	75239.8	
16749	0.507847	-0.81085	1.0648	2.53569e-05	0.00175926	8.78456e-05	-80153.5	612240	75239.8	
16809	0.508029	-0.815793	1.06452	0.000433171	0.00130656	7.78802e-11	60869.8	-575652	-54463.1	
16839	0.508029	-0.815793	1.06452	0.00048978	0.000771205	-5.06506e-05	60869.8	-575652	-54463.1	
16870	0.508029	-0.815793	1.06452	0.000601172	-0.000282237	-0.000150318	60869.8	-575652	-54463.1	
16899	0.507865	-0.813906	1.06448	0.000634042	-0.000593089	-0.000179728	-46603.8	537509	-10536.3	
16930	0.509042	-0.812162	1.06461	0.000593496	-0.000125456	-0.000188895	336138	498321	37110.7	
16959	0.508817	-0.810562	1.06476	0.000643917	-5.07081e-05	-0.000183328	65304.8	-208162	-33970.8	
16990	0.509135	-0.814064	1.06448	0.000669386	-0.000131891	-0.000196577	91801.2	-1.00941e+06	-82003.7	
17019	0.509223	-0.814688	1.06433	0.000677648	-0.000222738	-0.000203957	25374.9	-180672	-42794.9	
17050	0.509281	-0.814441	1.06434	0.000687544	-0.0002932	-0.000220647	17057.5	71717.2	1892.28	
17110	0.508724	-0.80987	1.06481	0.00172512	0.00020704	2.1328e-10	-174038	1.54973e+06	120383	
17139	0.508724	-0.80987	1.06481	0.00152672	0.00197373	0.000137237	-174038	1.54973e+06	120383	
17170	0.509148	-0.813209	1.06452	0.00142229	0.00290357	0.000209467	124525	-981904	-85902.2	
17229	0.508933	-0.812225	1.06431	0.00146556	0.000569049	3.76718e-10	-47755.8	411077	-25700.9	
17259	0.509169	-0.813303	1.06415	0.00143261	0.000852692	-1.77332e-05	69971.6	-320364	-47422.4	
17319	0.509274	-0.815136	1.06417	0.00159855	0.00134555	2.56673e-10	-93383	491677	34380.1	
17349	0.509274	-0.815136	1.06417	0.00143046	0.00223057	6.18844e-05	-93383	491677	34380.1	
17379	0.509274	-0.815136	1.06417	0.00117833	0.0035581	0.000154711	-93383	491677	34380.1	
17409	0.509274	-0.815136	1.06417	0.00084215	0.00532814	0.000278479	-93383	491677	34380.1	
17439	0.508491	-0.819724	1.06384	0.000808532	0.00550514	0.000290856	-237857	-1.39343e+06	-98938.5	
17470	0.508427	-0.819026	1.064	0.000651547	0.00458548	0.000225556	-19518.5	212421	47201.5	
17499	0.508159	-0.817018	1.06424	0.00064452	0.00466195	0.000242549	-81864	614016	73533.8	
17530	0.508552	-0.819153	1.06404	0.000592946	0.00504878	0.000288875	120671	-654363	-62526.9	
17559	0.508138	-0.816399	1.06433	0.000679829	0.00457764	0.000243856	-127559	846880	89000.5	
17590	0.508074	-0.815868	1.06428	0.000618601	0.00498414	0.000286576	-19602.3	163722	-13633.9	
17649	0.508613	-0.819636	1.06384	0.000150266	0.000372826	2.13137e-10	41601.4	-155603	-45728.2	
17709	0.508401	-0.81913	1.06397	0.000668375	-0.000416414	3.12077e-10	43138.2	-560622	-50497.6	
17739	0.508219	-0.817137	1.06421	0.000698141	-0.000803243	-3.4843e-05	-56984.2	625497	76583.1	
17769	0.50821	-0.816855	1.06418	0.000667369	-0.000465475	6.51185e-06	-3066.63	89123.2	-8451.59	
17799	0.508689	-0.82027	1.06376	0.000665621	-0.000414675	1.69445e-06	151404	-1.07966e+06	-132871	
17829	0.508689	-0.82027	1.06376	0.000888185	-0.00200177	-0.000193625	151404	-1.07966e+06	-132871	
17860	0.508559	-0.819163	1.06393	0.000956317	-0.00248762	-0.000253417	-41312.8	352567	54302.7	
17889	0.508395	-0.817845	1.0641	0.000924093	-0.00221262	-0.000211061	-52139	420410	51410.9	
17949	0.508883	-0.822912	1.0636	-0.000469065	-3.40361e-05	8.56671e-11	98258.9	-922737	-109033	
17980	0.508411	-0.819079	1.06399	-0.000418953	-0.000504632	-5.56069e-05	-152193	1.23681e+06	124351	
18009	0.508411	-0.819079	1.06399	-0.000628979	0.00120216	0.000115997	-152193	1.23681e+06	124351	
18040	0.509847	-0.813933	1.06405	-0.000674637	0.0015732	0.000153302	597502	751075	-81562.2	
18069	0.509847	-0.813933	1.06405	2.4441e-05	0.00245196	5.78745e-05	597502	751075	-81562.2	
18099	0.50989	-0.813896	1.06402	0.000436718	0.0029702	1.59654e-06	13815.3	12202.5	-8429.17	
18130	0.509811	-0.813316	1.06394	0.000444592	0.00297716	-3.20808e-06	-25736.8	190193	-26668.5	
18159	0.510122	-0.816964	1.06375	0.000433011	0.00306274	-1.52089e-05	102280	-1.20097e+06	-64293.1	
18189	0.509663	-0.813722	1.06416	0.000445285	0.00291863	-2.29241e-05	-151620	1.07197e+06	137514	
18219	0.509479	-0.812108	1.06439	0.000381604	0.00336885	3.4832e-05	-60975.9	534878	76609.6	
18249	0.509827	-0.815061	1.06404	0.000335872	0.00377001	9.22892e-05	115510	-980622	-117320	
18309	0.508217	-0.815656	1.06419	0.000260947	-0.000553771	3.627e-10	-537653	-198555	48480.4	
18339	0.509955	-0.814327	1.0639	5.12619e-05	-0.000631207	1.89077e-05	583518	446146	-94552.6	
18369	0.510413	-0.818703	1.06348	0.000243823	-0.000483979	-1.22947e-05	154676	-1.47469e+06	-143470	
18429	0.510637	-0.820124	1.06332	0.000341453	0.000897068	2.84264e-10	187144	-1.51398e+06	-110897	
18459	0.510571	-0.81955	1.06353	0.00049304	-0.000329257	-8.98261e-05	-22543.9	195096	70242.2	
18489	0.510231	-0.816286	1.06382	0.000488982	-0.00029414	-7.71825e-05	-116160	1.11496e+06	99584	
18520	0.51021	-0.816674	1.06384	0.00043671	0.000207591	-3.23697e-05	-7016.18	-132606	6952.4	
18549	0.510158	-0.816055	1.06391	0.000435658	0.0001877	-3.13269e-05	-18030.8	212847	26037.4	
18579	0.510568	-0.819809	1.06353	0.000428085	0.000277096	-2.03912e-05	141492	-1.29413e+06	-130963	
18610	0.510581	-0.82026	1.06356	0.000479022	-0.000188791	-6.7538e-05	4461.52	-155944	9084.1	
18639	0.510243	-0.817407	1.06363	0.0004821	-0.000296392	-6.127e-05	-117192	988921	25562.2	
18669	0.510243	-0.817407	1.06363	0.000295765	0.00127599	-2.06261e-05	-117192	988921	25562.2	
18699	0.510322	-0.817558	1.0636	0.000278186	0.00142433	-1.67918e-05	69259	-861018	-66394.9	
18729	0.510168	-0.816864	1.06377	0.000307275	0.0010627	-4.46777e-05	-53871.4	242854	59759.3	
18760	0.510095	-0.816414	1.06385	0.000291113	0.00113556	-2.67499e-05	-25800.5	158470	27601.3	
18789	0.510095	-0.816414	1.06385	0.000260927	0.00132097	5.5437e-06	-25800.5	158470	27601.3	
18820	0.510095	-0.816414	1.06385	0.000206745	0.00165376	6.35065e-05	-25800.5	158470	27601.3	
18849	0.508244	-0.815178	1.06423	0.000192813	0.00173933	7.84113e-05	-656262	438048	134479	
18909	0.508571	-0.819819	1.064	0.000714179	0.000661943	5.2292e-10	143687	-919150	-93291.8	
18940	0.507937	-0.81489	1.06444	0.000761595	0.000358624	-3.07858e-05	28998.5	63035.8	-23158.7	
18969	0.508044	-0.816316	1.06449	0.000779864	0.000398336	-4.53758e-05	38452.5	-512054	17387.2	
18999	0.507618	-0.813468	1.06473	0.000793707	0.000213997	-3.91164e-05	-153638	1.02668e+06	83970.5	
19030	0.507544	-0.813269	1.0648	0.000766052	0.0003988	-2.40017e-05	-26897.2	71995.5	28178	
19090	0.507928	-0.816319	1.06441	4.64193e-05	0.000770867	4.68782e-10	139422	-1.10726e+06	-141891	
19119	0.508034	-0.817474	1.06425	0.000163534	-0.000159232	-0.000119188	38593.8	-420900	-59401.2	
19149	0.5082	-0.817618	1.0644	0.000183217	-0.000373891	-0.000149482	60798.7	-52941	54781.9	
19179	0.50818	-0.817737	1.06442	0.000201456	-0.000389773	-0.000133048	45343.5	-112178	36753.9	
19210	0.50818	-0.817737	1.06442	0.000257229	-0.000527753	-8.78404e-05	45343.5	-112178	36753.9	
19299	0.508166	-0.817498	1.06437	0.00146937	0.00114917	5.06734e-10	84553.7	-594310	-45203.5	
19329	0.50997	-0.816278	1.0639	0.00148459	0.00104219	-8.13612e-06	-100391	802191	119725	
19359	0.510323	-0.817931	1.06379	0.00143339	0.00145131	5.29238e-05	131981	-618445	-41601.3	
19389	0.510475	-0.818938	1.06365	0.00154425	0.000931818	1.79787e-05	57148.4	-377312	-51248.6	
19419	0.510475	-0.818938	1.06365	0.00164369	0.000275294	-7.11938e-05	57148.4	-377312	-51248.6	
19449	0.510345	-0.817759	1.06389	0.00169341	-5.29677e-05	-0.00011578	-49243.2	444524	89108.5	
19509	0.510365	-0.819151	1.0638	0.000845335	0.00132437	3.91431e-10	-26630.7	-391301	-37579.6	
19569	0.508526	-0.819706	1.06393	0.000419246	0.00151087	1.35645e-10	-830886	496717	226759	
19600	0.508526	-0.819706	1.06393	-0.000478111	0.00204733	0.0002449	-830886	496717	226759	
19629	0.508864	-0.821988	1.06376	-0.00107635	0.00240497	0.000408166	129939	-876822	-65721.4	
19659	0.509934	-0.828938	1.06317	-0.000971098	0.00169474	0.000354932	412609	-2.67889e+06	-226459	
19689	0.509009	-0.822632	1.06369	-0.000624507	-0.000555524	0.000164707	-357595	2.43783e+06	198328	
19720	0.509231	-0.824853	1.06351	-0.000892703	0.00127284	0.000313453	86086.7	-861734	-68927.2	
19780	0.509021	-0.822532	1.06364	-6.12219e-05	0.000977805	4.75131e-10	-81825.5	904672	49324	
19840	0.508855	-0.822113	1.06374	0.00127201	0.000970912	9.28942e-11	-672197	725268	172801	
19869	0.508846	-0.822514	1.0637	0.00117118	0.0010797	2.59203e-05	-3307.32	-158237	-15287.2	
19899	0.509197	-0.824532	1.06353	0.00117029	0.00103698	2.17928e-05	138608	-798304	-68382.9	
19929	0.509197	-0.824532	1.06353	0.00133246	0.000102962	-5.82152e-05	138608	-798304	-68382.9	
19959	0.509129	-0.824404	1.06353	0.00139899	-0.000280224	-9.10391e-05	-26799.1	50931.2	2778.06	
19989	0.509073	-0.823823	1.06355	0.00137648	-0.000237442	-8.87055e-05	-22264.7	231478	6197	
20019	0.509158	-0.824544	1.06347	0.0013678	-0.000147165	-8.62887e-05	33827.3	-288585	-30155.7	
20050	0.509092	-0.824006	1.06352	0.00138099	-0.000259714	-9.80494e-05	-26566.2	215895	20228.5	
20079	0.509105	-0.823858	1.06355	0.00136426	-0.0001237	-8.53054e-05	5283.17	59801	10379	
20110	0.508713	-0.820992	1.06394	0.0013679	-8.24372e-05	-7.81439e-05	-157939	1.15645e+06	157225	
20140	0.508932	-0.8216	1.06398	0.00130157	0.000403274	-1.21094e-05	88594.3	-246449	16862.5	
20169	0.507971	-0.815451	1.06443	0.0013627	0.000233223	-4.74238e-07	-389894	2.49574e+06	182001	
20199	0.507971	-0.815451	1.06443	0.000742764	0.00420145	0.000288908	-389894	2.49574e+06	182001	
20229	0.508175	-0.816952	1.0642	0.000391859	0.00644762	0.000452709	83215.5	-612375	-93968.9	
20259	0.508425	-0.818889	1.06413	0.000421817	0.00622716	0.00041888	102262	-794079	-29626.7	
20289	0.508425	-0.818889	1.06413	0.000550667	0.00522662	0.00038155	102262	-794079	-29626.7	
20319	0.508967	-0.823129	1.06363	0.000593617	0.00489311	0.000369107	223341	-1.74833e+06	-202663	
20350	0.509099	-0.823428	1.06361	0.000607017	0.00478821	0.000356947	256582	-1.66458e+06	-129525	
20410	0.508449	-0.817919	1.06431	0.0015509	0.000219539	5.07783e-10	-269463	2.28524e+06	288663	
20439	0.508691	-0.820619	1.06406	0.00141348	0.00138501	0.000147219	101027	-1.12633e+06	-102697	
20469	0.508205	-0.817423	1.06433	0.00147106	0.000743002	8.86813e-05	-203387	1.33666e+06	110846	
20500	0.508324	-0.81891	1.06425	0.00137954	0.0013445	0.000138562	50004.9	-623820	-32437.7	
20529	0.508039	-0.817161	1.0643	0.00138554	0.00126964	0.00013467	-119979	736743	23226.7	
20590	0.508118	-0.81703	1.06437	0.00077239	-0.000405107	1.49302e-10	77636.8	-252665	-26023.5	
20619	0.51032	-0.818947	1.06367	0.000828289	-0.000587026	-1.87368e-05	933956	-813197	-297335	
20650	0.510398	-0.819536	1.06366	0.00150074	-0.00117253	-0.000232818	33202.8	-250645	-4041.39	
20679	0.510448	-0.819166	1.06379	0.00151667	-0.00129284	-0.000234758	20935.6	157822	53720.8	
20710	0.510191	-0.816953	1.06406	0.0015217	-0.00125496	-0.000221865	-12453.2	135029	3392.69	
20739	0.510191	-0.816953	1.06406	0.00150788	-0.00110508	-0.000218099	-12453.2	135029	3392.69	
20769	0.510191	-0.816953	1.06406	0.00148285	-0.00083367	-0.000211279	-12453.2	135029	3392.69	
20799	0.509541	-0.811614	1.06467	0.00147575	-0.000756703	-0.000209346	-280683	2.30574e+06	262887	
20829	0.510077	-0.814633	1.06455	0.0012905	0.000765087	-3.584e-05	232384	-1.30713e+06	-48424.2	
20889	0.510528	-0.819168	1.06383	0.00158928	-0.000233181	2.20394e-10	221690	-2.01859e+06	-263496	
20919	0.509748	-0.813159	1.06426	0.0017489	-0.00168657	-0.000189717	-340684	2.62337e+06	189239	
20949	0.509582	-0.812223	1.06447	0.00155471	-0.000191247	-8.18502e-05	-72600	410020	89796.3	
20979	0.510295	-0.816572	1.06434	0.00155035	-0.000166645	-7.64624e-05	313815	-1.91387e+06	-55038	
21009	0.510119	-0.815902	1.06418	0.00167274	-0.000913056	-9.79272e-05	-77780	295642	-73448.6	
21039	0.508772	-0.817509	1.06428	0.0016564	-0.000850971	-0.000113351	-595620	-710888	45069.1	
21069	0.508719	-0.817753	1.06407	0.00145985	-0.00108556	-9.84786e-05	-23746.6	-108120	-94201.9	
21100	0.508758	-0.81732	1.06421	0.00145059	-0.00112773	-0.000135217	17310.4	192277	65845.6	
21129	0.508676	-0.817378	1.06416	0.0014589	-0.00103544	-0.000103611	-36449.8	-25697.5	-25697.5	
21160	0.508882	-0.818699	1.06423	0.00143921	-0.00104931	-0.000117488	92061.8	-590377	32720.1	
21189	0.509096	-0.820572	1.06412	0.00151102	-0.00150981	-9.19664e-05	96082.2	-838774	-48176.6	
21219	0.509101	-0.820391	1.06406	0.00155138	-0.00186209	-0.000112201	1989.16	81199.7	-29314	
21249	0.509101	-0.820391	1.06406	0.001554	-0.00175491	-0.000150895	1989.16	81199.7	-29314	
21280	0.511351	-0.825409	1.06315	0.00155412	-0.00175004	-0.000152654	1.01889e+06	-2.27181e+06	-408550	
21309	0.511431	-0.826031	1.06296	0.00198205	-0.0027042	-0.000324245	36257.3	-282034	-86282.7	
21340	0.511676	-0.826928	1.06295	0.00198314	-0.00271266	-0.000326833	93361.3	-343844	84943.3	
21369	0.511452	-0.825394	1.06324	0.00199154	-0.00274361	-0.000319188	-102377	699974	131415	
21429	0.511615	-0.826391	1.06306	0.00106854	-0.000231542	3.85733e-10	74597.1	-456151	-82824.1	
21459	0.511769	-0.828009	1.06298	0.00108197	-0.000313649	-1.4908e-05	56942.7	-562954	-42305.2	
21489	0.511769	-0.828009	1.06298	0.00114347	-0.00092164	-6.05975e-05	56942.7	-562954	-42305.2	
21520	0.511396	-0.825633	1.06317	0.00118105	-0.00129319	-8.85189e-05	-172126	1.0981e+06	85396.1	
21549	0.510875	-0.826355	1.06419	0.00106228	-0.000535503	-2.95956e-05	-241493	-334275	473751	
21580	0.510716	-0.824973	1.0642	0.000939121	-0.000705983	0.000212017	-74113.2	642747	3204.43	
21609	0.510983	-0.826454	1.064	0.00087909	-0.000185358	0.000214613	124347	-689863	-89318.2	
21639	0.51114	-0.828291	1.06378	0.000927585	-0.000454404	0.000179779	73523.3	-859456	-103751	
21670	0.51114	-0.828291	1.06378	0.00102464	-0.00158889	4.28269e-05	73523.3	-859456	-103751	
21699	0.511164	-0.827452	1.06403	0.00105552	-0.00194986	-7.48771e-07	11452.2	394894	118420	
21729	0.511227	-0.827806	1.06398	0.00106445	-0.00164184	9.1619e-05	29412.9	-167178	-23688.3	
21760	0.511497	-0.825754	1.06336	0.00107768	-0.00171707	8.09592e-05	127994	970710	-294256	
21820	0.511196	-0.823525	1.06358	0.00107412	0.000926004	1.56857e-10	-102616	812952	121207	
21849	0.510962	-0.821599	1.06384	0.00104025	0.00119428	3.99985e-05	-111303	918672	125871	
21879	0.510962	-0.821599	1.06384	0.000903349	0.00232424	0.00019482	-111303	918672	125871	
21909	0.51087	-0.820849	1.06378	0.000856602	0.00271009	0.000247686	-44178	359496	-28127.5	
21939	0.511033	-0.822501	1.06354	0.000839373	0.00285029	0.000236716	78084.6	-793920	-117037	
21969	0.508425	-0.818307	1.06442	0.000858113	0.00265975	0.000208627	-1.25741e+06	2.0224e+06	424774	
22029	0.508957	-0.823693	1.06379	0.000826043	0.000827021	1.27375e-10	-98760.9	498228	104674	
22059	0.508783	-0.821166	1.0641	0.000787527	0.00102133	4.08229e-05	-84328.2	1.22803e+06	151682	
22119	0.508265	-0.817477	1.06452	0.00115796	0.000113839	1.5176e-10	-72893.8	702294	23728.6	
22149	0.508265	-0.817477	1.06452	0.00108143	0.000851248	2.49152e-05	-72893.8	702294	23728.6	
22179	0.508809	-0.821387	1.06409	0.00102676	0.00137797	4.27117e-05	266782	-1.91901e+06	-213919	
22240	0.510442	-0.81795	1.06415	0.000227094	-0.00031449	7.34528e-10	804028	1.6922e+06	30587.3	
22269	0.51005	-0.821123	1.0637	0.000492423	0.000243938	1.00945e-05	-194155	-1.57165e+06	-221423	
22299	0.509966	-0.820194	1.06389	0.000422528	-0.000321856	-6.96178e-05	-41518.1	461210	92288.2	
22329	0.5098	-0.818765	1.06424	0.000411318	-0.000197329	-4.47e-05	-82818.4	712006	175658	
22359	0.509748	-0.818342	1.06431	0.000364111	0.000208515	5.54253e-05	-26028.8	211159	34023.4	
22389	0.509748	-0.818342	1.06431	0.000325849	0.000518918	0.00010544	-26028.8	211159	34023.4	
22419	0.509926	-0.819473	1.06399	0.000311793	0.000632944	0.000123812	89472.7	-567867	-158709	
22449	0.509802	-0.818343	1.06401	0.000338635	0.000462584	7.61995e-05	-116599	910426	100538	
22509	0.509965	-0.819554	1.06384	0.000736785	0.000352946	1.47109e-10	72464.7	-613544	-68218.7	
22540	0.509951	-0.819472	1.06382	0.000745481	0.000279321	-8.1861e-06	-7071.23	41859.8	-13906	
22629	0.510017	-0.820342	1.0638	0.000811081	0.0005848	4.23633e-10	133061	-1.00379e+06	-56941.4	
22720	0.5097	-0.817302	1.06426	5.22974e-05	0.00131484	3.29877e-10	70093.6	-587597	-2493.07	
22780	0.508856	-0.821232	1.06385	-0.000463514	0.000270706	1.70627e-10	-145567	1.27784e+06	178502	
22809	0.508919	-0.821766	1.06376	-0.00054212	0.000960741	9.63913e-05	32701.9	-277628	-46150.4	
22840	0.508524	-0.819151	1.06422	-0.000512688	0.000710876	5.4856e-05	-205673	1.36104e+06	237339	
22869	0.508812	-0.821259	1.06405	-0.000605241	0.00132334	0.000161659	150333	-1.10114e+06	-87850.1	
22899	0.508628	-0.819635	1.06413	-0.000487981	0.000464454	9.31355e-05	-95743.4	849364	43121.1	
22929	0.508294	-0.8169	1.06438	-0.000487981	0.000464454	9.31355e-05	-217887	1.68747e+06	186403	
22959	0.508294	-0.8169	1.06438	-0.000684079	0.00198318	0.000260898	-217887	1.68747e+06	186403	
22990	0.508294	-0.8169	1.06438	-0.00108281	0.00507125	0.000602016	-217887	1.68747e+06	186403	
23019	0.508294	-0.8169	1.06438	-0.00167111	0.00962742	0.0011053	-217887	1.68747e+06	186403	
23049	0.510082	-0.81517	1.06415	-0.00171032	0.00993116	0.00113886	214767	991203	-33577.5	
23080	0.51024	-0.816356	1.06407	-0.00158791	0.0104961	0.00111972	84248.2	-630945	-39969.6	
23169	0.509855	-0.813813	1.06424	0.000871129	-0.000261663	4.19028e-10	-99420.7	906753	85360.2	
23199	0.507747	-0.813977	1.0646	0.000790598	0.000472807	6.91422e-05	-1.1318e+06	-88111.6	194326	
23229	0.507785	-0.813688	1.06463	-5.82515e-05	0.000406723	0.000214886	20459.1	155850	12385.8	
23260	0.507785	-0.813688	1.06463	-2.38803e-05	0.000668551	0.000235694	20459.1	155850	12385.8	
23290	0.507785	-0.813688	1.06463	2.89041e-05	0.00107064	0.00026765	20459.1	155850	12385.8	
23319	0.508048	-0.814619	1.06464	3.93383e-05	0.00115013	0.000273966	142706	-505440	6675.14	
23410	0.508338	-0.816589	1.06462	0.00120704	0.000896776	5.63196e-10	81381.6	-824453	-103165	
23440	0.508962	-0.820735	1.06411	0.00124367	0.000525772	-4.64236e-05	342758	-2.27466e+06	-281177	
23529	0.508964	-0.820204	1.0641	0.000560353	0.000681324	3.17329e-10	-208204	1.36666e+06	56144.9	
23560	0.509003	-0.820734	1.06416	0.000491646	0.00113232	1.85281e-05	32124.4	-491783	-92034.9	
23619	0.508869	-0.819498	1.06424	0.000878279	0.000151546	3.04527e-10	-74457.1	687336	44907.3	
23649	0.509129	-0.821402	1.06403	0.000835839	0.000543327	2.55975e-05	145010	-1.06351e+06	-117579	
23709	0.509246	-0.822428	1.06388	0.000503443	0.000472468	6.73747e-10	65794.4	-574215	-81278.5	
23770	0.509287	-0.819162	1.06407	0.00100685	-0.000374211	-0.000338931	23193.5	1.83637e+06	104292	
23799	0.50974	-0.821827	1.06363	0.00102494	0.00105816	-0.000257583	255855	-1.50608e+06	-249065	
23830	0.508596	-0.815573	1.06445	0.0011631	0.000244879	-0.000392078	-648946	3.54594e+06	466761	
23859	0.508534	-0.814886	1.06434	0.000832142	0.00205331	-0.000154029	-34940.5	390222	-62945.9	
23889	0.508218	-0.814115	1.0644	0.000811177	0.00228744	-0.000191797	-180352	439710	33268.7	
23919	0.508218	-0.814115	1.0644	0.00054065	0.00294701	-0.000141894	-180352	439710	33268.7	
23949	0.508317	-0.81395	1.06446	0.000497366	0.00305254	-0.000133909	-67259.8	492651	95604.9	
23979	0.508317	-0.81395	1.06446	0.00042069	0.00361416	-2.49198e-05	-67259.8	492651	95604.9	
24039	0.508537	-0.816292	1.06423	0.000644008	0.00115393	3.92585e-10	-58013.5	105777	75401.5	
24070	0.508984	-0.819722	1.06393	0.000640527	0.00116027	4.52448e-06	232545	-1.74464e+06	-113238	
24129	0.508772	-0.818929	1.06383	0.000910599	-0.000368235	6.82891e-10	-123012	460158	-60857.2	
24159	0.508931	-0.81968	1.06373	0.000862625	-0.000188773	-2.37336e-05	92932.5	-437649	-53918.7	
24189	0.508701	-0.81707	1.06407	0.000879353	-0.00026755	-3.3439e-05	-134339	1.52612e+06	197056	
24219	0.508853	-0.818737	1.06383	0.00080681	0.000556555	7.29711e-05	89074.4	-976382	-143512	
24249	0.509093	-0.819997	1.06375	0.000844221	0.000146475	1.26961e-05	140962	-740034	-43431.7	
24280	0.509093	-0.819997	1.06375	0.00103452	-0.000852572	-4.59366e-05	140962	-740034	-43431.7	
24339	0.509092	-0.819233	1.06377	0.00146736	0.00165025	3.67276e-10	-990.456	451428	12270.7	
24369	0.508385	-0.81536	1.06403	0.00146695	0.00183985	5.15404e-06	-419514	2.2975e+06	154017	
24430	0.509261	-0.822913	1.06339	-0.000142524	0.000150157	2.77595e-10	340642	-3.12657e+06	-412921	
24550	0.50944	-0.822967	1.0634	0.00109433	0.000447638	1.16103e-10	192965	-2.22751e+06	-336959	
24579	0.509068	-0.820231	1.0637	0.00115222	-0.000220615	-0.000101088	-224478	1.65146e+06	183046	
24610	0.509149	-0.82129	1.06373	0.00107814	0.000324366	-4.06827e-05	49113.7	-640986	17639.2	
24639	0.509324	-0.822744	1.06351	0.00109435	0.000112841	-3.48617e-05	105605	-881895	-134047	
24670	0.509763	-0.825448	1.06334	0.00110385	3.34705e-05	-4.69259e-05	204059	-1.12502e+06	-80411	
24699	0.509763	-0.825448	1.06334	0.00129975	-0.00104655	-0.00012412	204059	-1.12502e+06	-80411	
24730	0.509763	-0.825448	1.06334	0.00168542	-0.00317283	-0.000276097	204059	-1.12502e+06	-80411	
24760	0.508949	-0.82102	1.06391	0.00177112	-0.00364533	-0.00030987	-498478	2.7117e+06	348231	
24849	0.508859	-0.822363	1.06355	0.000545032	0.000516739	1.4292e-10	-350281	2.00542e+06	120274	
24879	0.509179	-0.823729	1.06341	0.000324355	0.00178015	7.57725e-05	197592	-844003	-86092.3	
24909	0.509263	-0.824621	1.06329	0.000442911	0.00127375	2.41171e-05	51720.8	-552573	-77076.4	
24940	0.509153	-0.824325	1.06365	0.000456875	0.00112456	3.3065e-06	178378	-1.86702e+06	-130014	
24969	0.508967	-0.822715	1.06383	0.0005532	0.000116365	-6.69009e-05	-115901	1.00264e+06	108132	
25000	0.508952	-0.822791	1.0638	0.000521906	0.000387078	-3.77052e-05	-8957.53	-47986.8	-16577.2	
25029	0.509295	-0.825211	1.06355	0.000517069	0.000361165	-4.6657e-05	214247	-1.51345e+06	-153629	
25059	0.509566	-0.826879	1.06346	0.000581343	-9.28696e-05	-9.27456e-05	170341	-1.04677e+06	-57384.2	
25089	0.50945	-0.825945	1.06349	0.000693768	-0.000783735	-0.000130619	-73003.8	587015	17614.5	
25119	0.50945	-0.825945	1.06349	0.000579882	0.000132009	-0.00010314	-73003.8	587015	17614.5	
25149	0.509039	-0.822695	1.06374	0.00054046	0.000448997	-9.36286e-05	-259334	2.05232e+06	159047	
25179	0.508858	-0.821337	1.06395	0.00030706	0.00229609	4.9514e-05	-114656	858814	130943	
25209	0.508858	-0.821337	1.06395	0.000100679	0.00384195	0.000285211	-114656	858814	130943	
25240	0.509037	-0.822515	1.06378	3.53254e-05	0.00433148	0.000359848	113714	-749344	-109063	
25269	0.509422	-0.82557	1.06341	8.30852e-05	0.00401675	0.000314041	245802	-1.94824e+06	-234397	
25329	0.509235	-0.824182	1.06358	0.000947683	-0.000431812	4.88138e-10	-119618	887602	110087	
25359	0.509279	-0.824368	1.06361	0.000850793	0.000287146	8.91706e-05	28417.7	-119289	15359.3	
25389	0.509296	-0.823917	1.06386	0.000874663	0.000186943	0.000102072	10422.7	290220	159815	
25419	0.5093	-0.824185	1.06369	0.000879979	0.000334955	0.000183578	2734.31	-172952	-106848	
25479	0.50905	-0.822717	1.0638	0.000614059	0.000873635	2.92525e-10	-67674.1	153338	-66708.2	
25509	0.508933	-0.822061	1.06394	0.000593757	0.000919636	-2.00122e-05	-166192	1.01314e+06	167070	
25539	0.508565	-0.818823	1.06424	0.000528942	0.00131476	4.51451e-05	-239515	2.1094e+06	194670	
25569	0.508614	-0.819079	1.0642	0.000392418	0.00251712	0.000156107	31492.8	-166948	-25595.5	
25600	0.509041	-0.822818	1.06372	0.000400921	0.00247204	0.000149196	279863	-2.44835e+06	-309963	
25659	0.508791	-0.821546	1.06404	0.00120697	-0.000181981	2.17459e-10	-63381.8	125354	68163	
25689	0.508791	-0.821546	1.06404	0.00114232	-5.41196e-05	6.95265e-05	-63381.8	125354	68163	
25719	0.508791	-0.821546	1.06404	0.00102063	0.00018656	0.0002004	-63381.8	125354	68163	
25749	0.503203	-0.824737	1.06726	0.000974993	0.000276814	0.000249477	-3.69781e+06	-2.11147e+06	2.13175e+06	
25779	0.503621	-0.827584	1.06691	-0.000245283	-0.000419972	0.000952955	277564	-1.8906e+06	-230659	
25809	0.50376	-0.828746	1.06658	-8.70712e-05	-0.00149761	0.000821479	92142.5	-772882	-222133	
25870	0.503808	-0.828641	1.0667	0.000789884	0.000842675	4.81327e-10	47439.8	-259768	-21264	
25899	0.503922	-0.830988	1.06662	0.00082831	0.000632263	-1.72233e-05	76209.5	-1.57101e+06	-49559.5	
25930	0.503871	-0.829812	1.06654	0.000839742	0.000396612	-2.46573e-05	207627	-1.35793e+06	-333254	
25959	0.503874	-0.829516	1.06808	0.000933174	-0.000214457	-0.000174622	2100	199468	1.03652e+06	
25990	0.503497	-0.827191	1.06682	0.000934875	-5.28873e-05	0.000664961	-254346	1.56707e+06	-850584	
26020	0.503287	-0.826026	1.06714	0.00084331	0.000511259	0.00035875	-141867	788145	217841	
26049	0.503796	-0.830048	1.06675	0.000805006	0.000724058	0.000417567	344901	-2.72712e+06	-261573	
26080	0.503097	-0.825645	1.06716	0.000908476	-9.40792e-05	0.000339096	-475386	2.99207e+06	279434	
26109	0.50304	-0.825047	1.06716	0.000608983	0.00179092	0.000515139	-38696.1	407054	-2281.83	
26199	0.50317	-0.826001	1.06712	0.000865839	4.56658e-05	8.87201e-10	88987.6	-651664	-28114.7	
26230	0.503726	-0.829096	1.06689	0.000937919	-0.000482182	-2.27721e-05	381492	-2.12474e+06	-155193	
26259	0.503103	-0.825277	1.06726	0.00120115	-0.00194825	-0.000129855	-428834	2.62871e+06	254435	
26289	0.502773	-0.823458	1.06734	0.000815198	0.000417585	9.91361e-05	-227364	1.25431e+06	51695.5	
26379	0.502884	-0.823409	1.06761	0.0013176	0.000823314	4.7974e-10	301561	-2.12023e+06	-316684	
26409	0.502494	-0.821393	1.06782	0.00156186	-0.000894076	-0.000256514	-271989	1.40318e+06	144616	
26439	0.502943	-0.824409	1.06742	0.00139867	-5.21678e-05	-0.000169745	313379	-2.10505e+06	-279318	
26469	0.502809	-0.822658	1.0677	0.0016149	-0.00150466	-0.000362474	-93665.4	1.22436e+06	197557	
26529	0.50315	-0.82515	1.06738	0.000414506	0.000542925	3.68749e-10	155403	-640656	-48495.9	
26559	0.509205	-0.823715	1.0637	0.000428492	0.000485266	-4.36426e-06	4.26955e+06	1.01224e+06	-2.59793e+06	
26590	0.508681	-0.819862	1.06389	0.00158127	0.000758572	-0.000705804	-369679	2.72258e+06	132197	
26649	0.508807	-0.819993	1.06394	0.000920075	0.00120116	3.80772e-10	-156222	1.94770e+06	183375	
26709	0.50898	-0.819535	1.06411	0.000301245	0.00026571	4.95135e-10	123752	326580	121299	
26769	0.508294	-0.814225	1.06449	-0.0008188	0.000645279	0.000265646	-500443	3.80198e+06	370256	
26799	0.508294	-0.814225	1.06449	-0.00144936	0.00543577	0.000732169	-500443	3.80198e+06	370256	
26830	0.508294	-0.814225	1.06449	-0.00254533	0.0137621	0.00154303	-500443	3.80198e+06	370256	
26859	0.508606	-0.816505	1.06426	-0.00295069	0.0168417	0.00184294	224856	-1.64208e+06	-162934	
26889	0.508816	-0.818401	1.06411	-0.0028495	0.0161028	0.00176962	151338	-1.36863e+06	-110039	
26919	0.508816	-0.818401	1.06411	-0.0026452	0.0142551	0.00162106	151338	-1.36863e+06	-110039	
26949	0.508798	-0.818453	1.06412	-0.00253169	0.0132287	0.00153853	-12759.7	-37806.6	10261.8	
26979	0.508798	-0.818453	1.06412	-0.00255275	0.0131663	0.00155547	-12759.7	-37806.6	10261.8	
27039	0.510075	-0.818791	1.06453	0.000829682	-4.3695e-05	1.77001e-10	145436	-260873	-274274	
27069	0.509995	-0.818933	1.06451	0.000934396	-0.000231523	-0.000197477	-58549.1	-103951	-17506.8	
27100	0.509806	-0.816529	1.06498	0.000911562	-0.000272064	-0.000204305	-138918	1.76364e+06	349653	
27129	0.510122	-0.817283	1.06466	0.000899059	-0.000113337	-0.000172836	50813.9	-445162	-173651	
27189	0.509974	-0.816972	1.06472	0.000981345	0.00139853	4.3452e-10	-109537	229100	47248.5	
27219	0.509974	-0.816972	1.06472	0.000771035	0.0018384	9.07176e-05	-109537	229100	47248.5	
27250	0.511577	-0.815228	1.0648	0.00074146	0.00190026	0.000103475	-117247	858011	120460	
27279	0.511536	-0.813812	1.06481	0.000678146	0.00236358	0.000168523	-30730.3	1.05279e+06	6505.96	
27310	0.509581	-0.811027	1.06451	0.000671693	0.00258467	0.000169889	45994.6	-117052	20064.1	
27339	0.50961	-0.811506	1.0645	0.000678592	0.00256711	0.000172899	21396.9	-358007	-4522.93	
27370	0.510266	-0.816734	1.06412	0.000683728	0.00248119	0.000171814	490872	-3.91352e+06	-286853	
27400	0.510266	-0.816734	1.06412	0.00124332	-0.00198023	-0.000155199	490872	-3.91352e+06	-286853	
27429	0.510553	-0.818712	1.06393	0.00150839	-0.00409353	-0.0003101	215981	-1.4865e+06	-142122	
27460	0.510433	-0.8181	1.06385	0.00160558	-0.00476245	-0.000374055	-90563.4	460744	-60960.2	
27520	0.509665	-0.811785	1.06449	0.000367039	-0.000145576	1.6562e-10	-573853	4.30869e+06	349881	
27549	0.509665	-0.811785	1.06449	-0.000252722	0.00450781	0.000377872	-573853	4.30869e+06	349881	
27609	0.511084	-0.824028	1.06301	0.00142936	0.000410742	1.76824e-10	560724	-3.51116e+06	-381925	
27669	0.51069	-0.82026	1.06339	0.00513236	-0.00351855	-0.00112286	-300776	2.87311e+06	292680	
27700	0.509366	-0.823375	1.06329	0.00508724	-0.00308759	-0.00107896	86470.4	-961140	14858.2	
27760	0.509312	-0.822456	1.06319	0.000940849	0.00160988	4.88799e-10	-41360.2	705915	-78498.6	
27849	0.510623	-0.820713	1.06326	0.0012923	0.000611771	2.49612e-10	1.20586e+06	-300501	-263668	
27879	0.510837	-0.821492	1.06318	0.00226905	0.000368365	-0.000213571	166238	-603686	-61770.2	
27909	0.51139	-0.824532	1.06288	0.0023638	2.42639e-05	-0.00024878	430276	-2.36527e+06	-239787	
27970	0.504293	-0.819912	1.069	0.00101466	0.0013043	1.75341e-10	-5.20464e+06	1.62956e+06	4.40634e+06	
28029	0.50255	-0.821652	1.06739	0.000497136	0.000454018	4.41723e-10	-188017	886196	110993	
28059	0.502464	-0.820529	1.0676	0.000378685	0.00101232	6.99263e-05	-67393.5	883181	166049	
28089	0.503397	-0.827229	1.067	0.00036251	0.00122428	0.000109778	735526	-5.28311e+06	-473239	
28119	0.503796	-0.829477	1.06673	0.000803826	-0.00194558	-0.000174165	314794	-1.77486e+06	-214790	
28149	0.503796	-0.829477	1.06673	0.00127602	-0.00460788	-0.00049635	314794	-1.77486e+06	-214790	
28180	0.506602	-0.833617	1.06744	0.00144601	-0.0055663	-0.000612336	2.22586e+06	-3.28343e+06	560547	
28209	0.503975	-0.818661	1.0691	0.00191344	-0.00625583	-0.000494622	-1.41428e+06	8.60973e+06	897024	
28240	0.502713	-0.823479	1.06737	0.00106487	-0.00108999	4.35928e-05	-1.00449e+06	-3.83699e+06	-1.38256e+06	
28300	0.501594	-0.814771	1.06812	0.000886156	0.00139962	3.69685e-10	-341567	3.39139e+06	496615	
28329	0.501669	-0.817798	1.06723	0.000640228	0.00384143	0.000357563	59692	-2.42506e+06	-709216	
28360	0.502622	-0.823076	1.06676	0.000686787	0.00194988	-0.000195625	765139	-4.23733e+06	-382513	
28389	0.502896	-0.824458	1.0668	0.000939283	0.000551557	-0.000321854	220314	-1.11308e+06	33225.2	
28420	0.503405	-0.827821	1.06632	0.00101199	0.00018424	-0.00031089	411299	-2.71426e+06	-383564	
28449	0.502718	-0.821816	1.06755	0.00118473	-0.000955749	-0.000471987	-555880	4.85525e+06	987887	
28540	0.502115	-0.817723	1.06795	-0.0057629	-0.000315632	2.486e-10	-866769	5.83992e+06	577922	
28571	0.501843	-0.817072	1.06781	-0.00638697	0.00388911	0.000416104	-221959	530060	-108380	
28629	0.503146	-0.824931	1.06705	-0.00474264	-0.00666962	0.000234025	677533	-4.37029e+06	-604312	
28659	0.503146	-0.824931	1.06705	-0.00405155	-0.0111273	-0.000382373	677533	-4.37029e+06	-604312	
28689	0.502578	-0.821615	1.06727	-0.00390927	-0.0120451	-0.000509279	-1.04259e+06	7.37666e+06	577684	
28720	0.503176	-0.826799	1.06674	-0.00450355	-0.00784039	-0.000179999	492453	-4.2701e+06	-434804	
28749	0.504766	-0.836835	1.06567	-0.00442968	-0.0084809	-0.000245219	1.31434e+06	-8.29186e+06	-883126	
28780	0.504002	-0.831385	1.06647	-0.00411424	-0.0104709	-0.00045717	-632623	4.51121e+06	663116	
28809	0.501731	-0.816301	1.06809	-0.00434198	-0.00884691	-0.000218448	-1.88364e+06	1.25086e+07	1.34282e+06	
28840	0.502416	-0.821855	1.06738	-0.00473755	-0.00622011	6.35449e-05	569846	-4.61684e+06	-588118	
28869	0.503335	-0.827897	1.06661	-0.00449821	-0.00815919	-0.000183465	765233	-5.03075e+06	-642831	
28899	0.504859	-0.839196	1.06532	-0.00426864	-0.00966841	-0.000376314	1.27136e+06	-9.43016e+06	-1.07518e+06	
28930	0.504859	-0.839196	1.06532	-0.00270487	-0.0212675	-0.00169879	1.27136e+06	-9.43016e+06	-1.07518e+06	
28959	0.504859	-0.839196	1.06532	-3.50091e-05	-0.0410708	-0.00395667	1.27136e+06	-9.43016e+06	-1.07518e+06	
28990	0.503378	-0.829002	1.06642	0.000994793	-0.0487093	-0.00482756	-1.24187e+06	8.55158e+06	922103	
29050	0.5034	-0.828743	1.06643	0.000983336	-0.00034861	6.7348e-10	315790	-1.99994e+06	-201538	
29110	0.502326	-0.822201	1.06721	0.000851613	0.000352644	4.82827e-10	-185685	1.07767e+06	69582.9	
29139	0.503579	-0.829273	1.06807	0.000745773	0.000966915	3.96627e-05	1.06251e+06	-5.99711e+06	732245	
29199	0.502625	-0.822203	1.06745	0.00129743	-0.000582301	2.06375e-10	-985975	7.0484e+06	-393883	
29259	0.505357	-0.828371	1.068	0.00159994	-0.000855607	4.70039e-10	1.55376e+06	994838	1.27259e+06	
29289	0.512946	-0.825376	1.0636	0.00243897	-0.000318394	0.0006872	6.50245e+06	2.56612e+06	-3.76385e+06	
29319	0.512974	-0.825764	1.06394	0.00829118	0.00199112	-0.00270026	23568.5	-333234	285778	
29349	0.510716	-0.819918	1.0637	0.00830673	0.00177118	-0.00251165	-1.9414e+06	5.02839e+06	-201373	
29409	0.511532	-0.825904	1.06307	0.00103509	-6.45131e-05	1.88467e-10	322793	-2.28663e+06	-180729	
29439	0.511212	-0.822748	1.06326	0.00127719	-0.00177949	-0.000135546	-276982	2.73025e+06	163570	
29469	0.511355	-0.825221	1.06306	0.00119409	-0.000960409	-8.64753e-05	124549	-2.14586e+06	-175306	
29499	0.511168	-0.823972	1.06326	0.00127256	-0.0023123	-0.000196918	-162462	1.0854e+06	168086	
29589	0.510924	-0.82214	1.06344	-2.94677e-05	0.00101634	5.30192e-10	-67344.8	622452	81090.3	
29619	0.509652	-0.827768	1.06309	-4.56305e-05	0.00116573	1.94622e-05	-1.11543e+06	-4.9346e+06	-309979	
29650	0.511282	-0.825441	1.06309	-0.000748349	-0.00194306	-0.000175825	1.4307e+06	2.04258e+06	8012.35	
29679	0.508935	-0.808175	1.06465	0.000110068	-0.000717518	-0.000171017	-2.06408e+06	1.51885e+07	1.36838e+06	
29709	0.510985	-0.820751	1.06384	-0.000447235	0.00338336	0.000198446	1.80773e+06	-1.10929e+07	-710771	
29739	0.510845	-0.821139	1.06392	0.000745869	-0.00393797	-0.000270663	-123532	-342798	67934.5	
29770	0.511036	-0.822222	1.0637	0.000701398	-0.00406138	-0.000246206	169109	-959647	-194057	
29829	0.510473	-0.817436	1.0642	0.00144845	0.000198977	5.52968e-10	-499326	4.24635e+06	441201	
29859	0.510141	-0.81404	1.06441	0.00134359	0.00109071	9.26528e-05	-396463	3.41977e+06	308572	
29889	0.510047	-0.812944	1.06455	0.0011295	0.00293739	0.000259282	-84180	977752	129636	
29920	0.51048	-0.816467	1.06434	0.00111182	0.00314272	0.000286505	387710	-3.15218e+06	-192167	
29949	0.510238	-0.815187	1.06424	0.00127466	0.0018188	0.000205795	-216944	1.14694e+06	-89214.7	
30009	0.510457	-0.816907	1.06422	0.00101776	0.000249839	1.31649e-10	18856.8	-394567	16174.9	
30040	0.510582	-0.816949	1.0643	0.00102285	0.000143306	4.36736e-06	113348	-38048.5	73073.3	
30069	0.510582	-0.816949	1.0643	0.00115207	9.99309e-05	8.7671e-05	113348	-38048.5	73073.3	
30099	0.510582	-0.816949	1.0643	0.0013833	2.23119e-05	0.000236741	113348	-38048.5	73073.3	
30130	0.509375	-0.821211	1.06382	0.00146831	-6.22449e-06	0.000291546	-1.09425e+06	-3.86262e+06	-436299	
30159	0.509217	-0.819044	1.06417	0.000516312	-0.00336671	-8.80343e-05	-143603	1.96724e+06	317897	
30190	0.509532	-0.822163	1.06386	0.000434458	-0.00224538	9.31669e-05	286971	-2.83919e+06	-283750	
30219	0.509032	-0.821448	1.06411	0.000598032	-0.00386372	-6.85703e-05	-456300	651917	228999	
30250	0.503682	-0.826899	1.06733	0.000187362	-0.00327699	0.000137529	-4.88616e+06	-4.97764e+06	2.94215e+06	
30279	0.503691	-0.82756	1.06713	-0.00377043	-0.00730888	0.00252067	8693.78	-605326	-184956	
30309	0.503573	-0.826739	1.06729	-0.00376834	-0.00745416	0.00247628	-108811	753595	144938	
30340	0.505059	-0.823076	1.06905	-0.00377161	-0.00743155	0.00248063	53534.7	212767	215767	
30369	0.503611	-0.825966	1.06724	-0.00376679	-0.0074124	0.00250005	-1.33568e+06	-2.6645e+06	-1.6752e+06	
30399	0.503681	-0.827396	1.0672	-0.00412742	-0.00813181	0.00204774	65025.4	-1.32115e+06	-30276.4	
30430	0.503681	-0.827396	1.0672	-0.00404939	-0.0097172	0.00201141	65025.4	-1.32115e+06	-30276.4	
30459	0.50347	-0.825589	1.06744	-0.00402403	-0.0102324	0.00199961	-195494	1.6748e+06	222040	
30490	0.503698	-0.827637	1.06697	-0.00410614	-0.00952903	0.00209286	211276	-1.90162e+06	-443139	
30519	0.503856	-0.828113	1.06693	-0.0039667	-0.0107841	0.00180039	147469	-443404	-30316.7	
30550	0.503621	-0.826464	1.06729	-0.00388264	-0.0110368	0.00178311	-219288	1.53771e+06	334836	
30579	0.503621	-0.826464	1.06729	-0.00419841	-0.00882253	0.00226527	-219288	1.53771e+06	334836	
30610	0.503202	-0.82399	1.06724	-0.0042642	-0.00836122	0.00236572	-392380	2.316e+06	-47439.7	
30639	0.503336	-0.824857	1.06732	-0.00441723	-0.00745798	0.00234722	126313	-812476	68572.6	
30700	0.50406	-0.831061	1.06664	0.000417978	-0.000117815	2.04889e-10	85629.7	-242640	27973.3	
30729	0.503846	-0.828424	1.0671	0.00043596	-0.00016877	5.87459e-06	-202263	2.4893e+06	440565	
30789	0.509501	-0.825158	1.06364	0.00058978	0.000996522	2.38379e-10	5.26668e+06	4.85502e+06	-2.9159e+06	
30849	0.509763	-0.827611	1.06313	0.000368956	0.000129672	2.74195e-10	248728	-2.32974e+06	-491441	
30879	0.509206	-0.823529	1.06369	0.000540578	-0.00147785	-0.000339094	-529762	3.8867e+06	540358	
30910	0.509143	-0.822917	1.0638	0.00033397	3.796e-05	-0.000128354	-60411.9	584470	103932	
30970	0.508866	-0.820565	1.0642	0.000616754	6.51092e-05	1.59542e-10	-157386	1.44766e+06	201250	
31029	0.508965	-0.82146	1.06393	0.00138601	0.000813173	2.79021e-10	38348.3	-511550	-55665.5	
31059	0.508965	-0.82146	1.06393	0.00145504	-0.000107616	-0.000100198	38348.3	-511550	-55665.5	
31089	0.509348	-0.8249	1.06341	0.00146884	-0.000291774	-0.000120237	370395	-3.32222e+06	-505043	
31149	0.509761	-0.827768	1.06314	0.00119002	5.89683e-06	1.72412e-10	316743	-2.34647e+06	-318685	
31180	0.509761	-0.827768	1.06314	0.00157962	-0.00288026	-0.000391982	316743	-2.34647e+06	-318685	
31209	0.509547	-0.824994	1.06354	0.00169364	-0.00372499	-0.000506708	-208294	2.69984e+06	388670	
31239	0.509503	-0.824453	1.06369	0.00154992	-0.0018621	-0.000238526	-43424.7	526904	139939	
31269	0.509783	-0.826717	1.06343	0.00152908	-0.00160919	-0.000171356	273810	-2.21177e+06	-251524	
31299	0.509775	-0.827287	1.06317	0.00157015	-0.00194096	-0.000209084	-44006.8	-603235	-138633	
31330	0.509775	-0.827287	1.06317	0.00152262	-0.00259245	-0.000358808	-44006.8	-603235	-138633	
31389	0.509413	-0.823714	1.06384	0.000816483	0.000954133	2.1114e-10	241175	-1.27869e+06	-82209.4	
31419	0.508932	-0.820344	1.06421	0.000852659	0.000762329	-1.23312e-05	-474973	3.32582e+06	366983	
31449	0.509208	-0.822324	1.06406	0.000667419	0.0020594	0.000130792	272609	-1.95695e+06	-151398	
31479	0.508349	-0.821763	1.0641	0.000716489	0.00170715	0.00010354	-850242	556096	42251.5	
31539	0.508433	-0.822488	1.06401	0.00106176	0.000359713	4.50171e-10	83580	-719647	-92866.6	
31569	0.508433	-0.822488	1.06401	0.00123728	-0.00115155	-0.000195019	83580	-719647	-92866.6	
31599	0.508532	-0.823073	1.06381	0.00129244	-0.00162651	-0.000256311	97877.4	-583736	-202162	
31659	0.508985	-0.826888	1.06339	8.74388e-05	0.00152123	1.21437e-10	-136330	879546	159417	
31689	0.508863	-0.825833	1.0635	1.55088e-06	0.00207534	0.000100433	-122212	1.05774e+06	110958	
31719	0.510125	-0.834219	1.06281	-0.000101108	0.00296385	0.000193637	1.26749e+06	-8.42278e+06	-689630	
31750	0.509164	-0.827857	1.06337	0.000697409	-0.00234251	-0.00024083	-967874	6.40524e+06	563867	
31779	0.510015	-0.833659	1.06295	0.000261866	0.000539849	1.29103e-05	859037	-5.85417e+06	-432713	
31839	0.509551	-0.830829	1.06313	0.000872678	0.00154304	1.3737e-10	-364669	1.99059e+06	121871	
31900	0.509178	-0.828319	1.06341	0.000681151	0.000819276	1.38853e-10	623476	-4.30781e+06	-361795	
31929	0.509178	-0.828319	1.06341	0.00126098	-0.00318699	-0.00033647	623476	-4.30781e+06	-361795	
31960	0.508823	-0.825518	1.06374	0.00169118	-0.00615937	-0.000586108	-361588	2.85689e+06	330763	
31989	0.509108	-0.827456	1.06343	0.00140914	-0.003931	-0.000328113	290531	-1.97963e+06	-315983	
32020	0.509062	-0.827408	1.0634	0.00159218	-0.00517816	-0.000527182	-46536.4	49015.8	-30706.4	
32049	0.509062	-0.827408	1.0634	0.00152237	-0.00510464	-0.000573242	-46536.4	49015.8	-30706.4	
32080	0.5088	-0.824945	1.0639	0.00149445	-0.00507523	-0.000591666	-269180	2.53184e+06	516821	
32109	0.508454	-0.823389	1.06389	0.00128449	-0.0031004	-0.000188545	-356610	1.60129e+06	-14858.7	
32139	0.508029	-0.819174	1.06424	0.001231	-0.0028602	-0.000190774	-413329	3.95673e+06	391595	
32169	0.508182	-0.820664	1.0641	0.001045	-0.00107967	-1.45561e-05	157286	-1.54012e+06	-147031	
32199	0.508182	-0.820664	1.0641	0.00125734	-0.00315884	-0.000213048	157286	-1.54012e+06	-147031	
32290	0.508436	-0.822783	1.064	0.0016734	-0.000112566	2.733e-10	-134998	1.20025e+06	177832	
32349	0.508348	-0.822925	1.06388	0.00203905	0.000680883	2.55471e-10	-257561	1.02324e+06	41824.5	
32380	0.508363	-0.822437	1.06389	0.00186133	0.00138692	2.88592e-05	16381.2	511425	19989	
32409	0.508573	-0.823755	1.0638	0.00186527	0.00150966	3.36565e-05	220135	-1.38368e+06	-99239.1	
32439	0.508573	-0.823755	1.0638	0.00211622	-6.77302e-05	-7.94761e-05	220135	-1.38368e+06	-99239.1	
32469	0.508116	-0.820724	1.06409	0.00222188	-0.000731895	-0.000127111	-481900	3.19262e+06	310052	
32499	0.508236	-0.820993	1.06409	0.00203394	0.000513227	-6.19068e-06	126838	-284047	-5012.6	
32530	0.508445	-0.822755	1.06389	0.00212527	0.000308713	-9.79975e-06	220826	-1.86187e+06	-215709	
32559	0.508926	-0.820012	1.06439	0.00229089	-0.00108769	-0.000171581	509199	2.90348e+06	538033	
32619	0.508815	-0.819239	1.06431	0.00136657	-0.000858237	5.48536e-10	-259858	1.97111e+06	73948.7	
32649	0.50913	-0.821584	1.06404	0.00129641	-0.000326037	1.99667e-05	181474	-1.54288e+06	-221956	
32709	0.508577	-0.817795	1.06425	0.000677846	0.00111055	3.02089e-10	-590470	4.04608e+06	225130	
32769	0.508726	-0.818076	1.06453	0.000322607	0.00151287	2.57543e-10	-49262.7	1.27893e+06	323726	
32799	0.509479	-0.820633	1.06407	0.000300439	0.00208839	0.000145677	809190	-2.74778e+06	-485474	
32830	0.509135	-0.817814	1.06432	0.000446093	0.00159379	5.82918e-05	-371416	3.03675e+06	269318	
32859	0.508836	-0.81885	1.06449	0.000267813	0.00305143	0.000187565	-322270	-1.1171e+06	174496	
32889	0.509464	-0.824581	1.06364	0.000142128	0.00261576	0.000255618	678853	-6.19453e+06	-911378	
32919	0.509979	-0.82498	1.06356	0.000488342	-0.000543448	-0.000209185	557935	-432415	-91745.8	
32949	0.509979	-0.82498	1.06356	0.00127503	-0.00115315	-0.000338546	557935	-432415	-91745.8	
32979	0.509979	-0.82498	1.06356	0.00256386	-0.00215203	-0.000550479	557935	-432415	-91745.8	
33099	0.509857	-0.82246	1.06388	0.000833772	0.000298881	1.31945e-10	168187	-1.3456e+06	-101147	
33130	0.509815	-0.821783	1.06408	0.00093973	-0.000548848	-6.37225e-05	-46043.6	742414	219396	
33189	0.509463	-0.81983	1.06418	0.000834325	-0.000681408	3.14223e-10	60003.2	-605356	-45156	
33219	0.509529	-0.820513	1.06437	0.000875727	-0.0010991	-3.11573e-05	72302.4	-752376	212238	
33249	0.509529	-0.820513	1.06437	0.000990688	-0.00229538	0.0003063	72302.4	-752376	212238	
33279	0.5096	-0.825212	1.06362	0.0010037	-0.00243081	0.000344503	206728	-1.83034e+06	-344890	
33309	0.509569	-0.824568	1.06372	0.00110913	-0.00336428	0.000168609	-34580	713277	109933	
33340	0.509464	-0.824248	1.0638	0.0010998	-0.0031717	0.000198291	-116037	356129	94981.6	
33369	0.509808	-0.826651	1.06348	0.00105802	-0.00304349	0.000232485	382644	-2.67379e+06	-355856	
33399	0.510558	-0.830741	1.0632	0.0011843	-0.00392584	0.000115052	835543	-4.56029e+06	-315717	
33459	0.509869	-0.826822	1.06355	0.00129345	0.000251925	3.18554e-10	-769087	4.37874e+06	391749	
33489	0.512029	-0.827817	1.06317	0.000762784	0.00327326	0.000270307	2.41942e+06	-1.11451e+06	-423272	
33519	0.510414	-0.831125	1.0633	0.00257735	0.00243738	-4.7147e-05	-1.81184e+06	-3.7103e+06	145750	
33549	0.510414	-0.831125	1.0633	-0.000412193	-0.00368462	0.00019334	-1.81184e+06	-3.7103e+06	145750	
33609	0.511122	-0.822882	1.06326	0.0016642	0.000910359	2.53903e-10	-399562	1.57628e+06	-65262.5	
33639	0.503953	-0.830037	1.06665	0.00144844	0.00176155	-3.52415e-05	-8.104e+06	-8.08705e+06	3.82534e+06	
33670	0.503873	-0.829528	1.06673	-0.001469	-0.00114979	0.00134188	-90418.6	575957	94638.8	
33699	0.50386	-0.828964	1.06681	-0.00148799	-0.00102884	0.00136176	-15065	640235	88169.8	
33730	0.503889	-0.829267	1.06682	-0.00149657	-0.000663901	0.00141201	32757	-344081	12700.6	
33759	0.503889	-0.829267	1.06682	-0.0014494	-0.00115938	0.0014303	32757	-344081	12700.6	
33790	0.504004	-0.830066	1.0668	-0.00143859	-0.00127292	0.00143449	99146	-667668	-64078.3	
33819	0.504004	-0.830066	1.0668	-0.00131962	-0.00207413	0.0013576	99146	-667668	-64078.3	
33850	0.503828	-0.828376	1.06706	-0.00123931	-0.00261494	0.0013057	-201153	1.93279e+06	295230	
33879	0.503718	-0.827189	1.06726	-0.00132379	-0.00180316	0.00142969	-126247	1.36201e+06	226112	
33909	0.503572	-0.82721	1.06721	-0.00134652	-0.001558	0.00147039	-250973	918039	-27297.1	
33939	0.503572	-0.82721	1.06721	-0.00161757	-0.00056652	0.00144091	-250973	918039	-27297.1	
33969	0.503482	-0.8268	1.06746	-0.00173804	-0.000125861	0.00142781	-103820	472721	280219	
34060	0.504112	-0.830067	1.06688	0.000216013	-0.000673053	2.11019e-10	276029	-2.30179e+06	-53153.2	
34089	0.503651	-0.82808	1.06704	0.000307102	-0.00143264	-1.75403e-05	-536126	2.30804e+06	187109	
34149	0.504289	-0.830937	1.06683	0.000707342	0.00107894	1.89469e-10	749132	-3.497e+06	-235471	
34179	0.504289	-0.830937	1.06683	0.00153888	-0.00280273	-0.000261373	749132	-3.497e+06	-235471	
34239	0.504275	-0.83207	1.0684	0.000309091	-0.000789245	2.62912e-10	959151	-6.42107e+06	-600239	
34270	0.50492	-0.835642	1.06639	0.000942131	-0.00502715	-0.000396157	757287	-4.18903e+06	-2.34969e+06	
34299	0.503664	-0.828531	1.0671	0.00135107	-0.00728923	-0.00166499	-1.47596e+06	8.35678e+06	826659	
34330	0.503237	-0.824663	1.06754	0.000288376	-0.00127235	-0.0010698	-503098	4.55233e+06	521512	
34359	0.503437	-0.825976	1.06736	-7.38552e-05	0.00200533	-0.000694307	235341	-1.54819e+06	-212998	
34419	0.503146	-0.824386	1.06761	0.000207553	0.00154114	4.47318e-10	-342967	1.8793e+06	303185	
34449	0.505367	-0.826144	1.06856	0.000114952	0.00204855	8.18603e-05	2.25035e+06	143495	1.49614e+06	
34509	0.505401	-0.82706	1.06873	-6.78179e-05	0.0011053	2.92184e-10	40242.8	-1.08905e+06	197948	
34539	0.505401	-0.82706	1.06873	5.82652e-06	-0.000887656	0.000362246	40242.8	-1.08905e+06	197948	
34569	0.503647	-0.826703	1.06725	3.60087e-05	-0.00170444	0.000510707	-2.09381e+06	425531	-1.76702e+06	
34599	0.503307	-0.825908	1.06733	-0.000969021	-0.00150019	-0.000337465	-406331	950334	104145	
34629	0.503779	-0.827569	1.06725	-0.00104216	-0.00132913	-0.000318719	777032	-2.91007e+06	-40861.2	
34659	0.503374	-0.826317	1.06737	-0.000669186	-0.00272596	-0.000338332	-485871	1.50266e+06	135132	
34690	0.503457	-0.825678	1.06759	-0.000960708	-0.00182437	-0.000257253	99575.8	767388	264976	
34719	0.503805	-0.826899	1.06745	-0.000894988	-0.00131789	-8.2369e-05	418208	-1.46978e+06	-166835	
34750	0.503729	-0.826931	1.06737	-0.000618971	-0.00228795	-0.00019248	-90811.3	-37739.7	-95472.6	
34780	0.503729	-0.826931	1.06737	-0.000760636	-0.00234682	-0.000341417	-90811.3	-37739.7	-95472.6	
34809	0.503628	-0.826044	1.06746	-0.000798777	-0.00236267	-0.000381516	-122620	1.07342e+06	110161	
34840	0.504247	-0.829963	1.0671	-0.000850278	-0.00191184	-0.000335248	750194	-4.75362e+06	-432394	
34869	0.50377	-0.827104	1.06744	-0.000760254	-0.00248227	-0.000387135	213511	-1.09971e+06	-80604.5	
34900	0.503597	-0.826526	1.06726	-0.000664174	-0.00297714	-0.000423407	-210243	703832	-217610	
34929	0.504401	-0.832393	1.06666	-0.000746169	-0.00270265	-0.000508275	980362	-7.1528e+06	-731766	
34960	0.504401	-0.832393	1.06666	0.000547908	-0.0121443	-0.00147421	980362	-7.1528e+06	-731766	
34989	0.504599	-0.833545	1.06656	0.00116554	-0.0166506	-0.00193522	241195	-1.40822e+06	-124014	
35019	0.504599	-0.833545	1.06656	0.00153456	-0.0188052	-0.00212496	241195	-1.40822e+06	-124014	
35049	0.503905	-0.829183	1.06692	0.00159969	-0.0191854	-0.00215844	333496	-3.2102e+06	-613477	
35109	0.504371	-0.831665	1.06652	0.00113524	0.000118191	2.98242e-10	-24409	1.22996e+06	24981.9	
35139	0.504371	-0.831665	1.06652	0.00109057	0.00236902	4.57173e-05	-24409	1.22996e+06	24981.9	
35170	0.504065	-0.829065	1.06688	0.0010708	0.00336529	6.59526e-05	-378592	3.21139e+06	444442	
35199	0.504003	-0.828815	1.06689	0.000889072	0.00490675	0.000279285	-76375.1	309074	18675.9	
35230	0.504478	-0.831819	1.06824	0.000859286	0.00502729	0.000286568	588850	-3.72496e+06	1.6716e+06	
35289	0.504549	-0.832987	1.06652	0.00186744	0.00132019	4.42195e-10	125898	-2.40984e+06	-297641	
35319	0.504641	-0.832788	1.06659	0.00193542	1.88748e-05	-0.000160726	113853	247319	83329.5	
35349	0.504338	-0.831872	1.06656	0.00196616	8.5651e-05	-0.000138227	-378196	1.14384e+06	-32684.3	
35380	0.504482	-0.832433	1.06659	0.0017279	0.000806267	-0.000158818	180365	-701198	33418.1	
35409	0.504414	-0.831613	1.0667	0.00185235	0.00032244	-0.000135759	-85247.3	1.02693e+06	143089	
35439	0.50447	-0.832469	1.0667	0.00184212	0.000445672	-0.000118589	70105.8	-1.07457e+06	3859.04	
35469	0.504547	-0.832474	1.06669	0.00187367	-3.78827e-05	-0.000116852	96755	-6087.43	-20720.7	
35499	0.504547	-0.832474	1.06669	0.00200429	-4.61008e-05	-0.000144825	96755	-6087.43	-20720.7	
35529	0.504301	-0.830732	1.06671	0.00203331	-4.7927e-05	-0.000151041	-309836	2.19705e+06	28316.4	
35560	0.504529	-0.832473	1.06667	0.00194966	0.000545277	-0.000143396	287677	-2.19972e+06	-50614.2	
35589	0.504694	-0.833498	1.06637	0.00211363	-0.000708562	-0.000172246	208152	-1.29699e+06	-384136	
35619	0.504448	-0.832124	1.06643	0.00218232	-0.00113657	-0.000299011	-311213	1.74152e+06	80061.7	
35679	0.504369	-0.831592	1.06661	0.000628797	8.20336e-06	2.4284e-10	-16225	-413677	31976.2	
35710	0.503884	-0.828587	1.06694	0.000623443	-0.00012831	1.05524e-05	-31334	-393812	194651	
35739	0.503884	-0.828587	1.06694	0.000585842	-0.000600884	0.000244133	-31334	-393812	194651	
35770	0.503577	-0.82474	1.06741	0.000567041	-0.000837171	0.000360924	-392260	4.91672e+06	606571	
35799	0.504447	-0.831846	1.06659	0.00030815	0.00240787	0.000761261	1.11299e+06	-9.09634e+06	-1.05202e+06	
35830	0.504411	-0.831104	1.06665	0.00117628	-0.00468728	-5.93125e-05	-45546.8	950931	77602.7	
35859	0.504247	-0.830538	1.06678	0.00115032	-0.00414525	-1.5079e-05	-210966	726865	161858	
35890	0.503912	-0.82791	1.06712	0.000992098	-0.0036001	0.000106314	-431325	3.38088e+06	439052	
35919	0.50395	-0.828303	1.06709	0.00088858	-0.00278869	0.000211687	49602.7	-506476	-40835.1	
35950	0.503725	-0.826826	1.06726	0.000904949	-0.00295582	0.000198211	-291224	1.90745e+06	218207	
35979	0.503725	-0.826826	1.06726	0.00055548	-0.000666884	0.00046006	-291224	1.90745e+06	218207	
36009	0.503725	-0.826826	1.06726	-5.60897e-05	0.00333876	0.000918296	-291224	1.90745e+06	218207	
36040	0.504299	-0.831154	1.06655	-0.000169667	0.00408267	0.0010034	745349	-5.61768e+06	-923165	
36069	0.504166	-0.830282	1.06673	0.000277543	0.000712057	0.000449498	-172586	1.13294e+06	236247	
36100	0.503718	-0.826905	1.06716	0.000241299	0.000949976	0.00049911	-99121.6	891366	115379	
36129	0.503569	-0.826766	1.06721	0.000199668	0.00132435	0.000547569	-193505	181722	65959.2	
36159	0.503693	-0.826799	1.06717	0.000106786	0.00141158	0.000579229	161808	-43067.7	-57058.6	
36189	0.503628	-0.826525	1.0673	0.000242705	0.0013754	0.0005313	-85064.3	357794	166719	
36220	0.503596	-0.826223	1.06741	0.000176355	0.00165448	0.00066134	-42091.3	395780	153237	
36249	0.509233	-0.822287	1.06532	0.000148575	0.00191569	0.000762477	7.39744e+06	5.16553e+06	-2.74655e+06	
36280	0.509256	-0.822747	1.06399	0.000814345	0.00238059	0.000515287	30271.6	-605310	-1.74669e+06	
36309	0.509305	-0.822953	1.06385	0.000827059	0.00212636	-0.000218321	64778	-271258	-190285	
36340	0.509165	-0.821801	1.0639	0.000856209	0.00200429	-0.000303949	-185316	1.51952e+06	74962	
36369	0.509165	-0.821801	1.0639	0.000611592	0.00401006	-0.000204999	-185316	1.51952e+06	74962	
36460	0.509644	-0.825561	1.06368	0.000845178	0.000702927	2.84017e-10	-85027.5	921213	329234	
36489	0.509859	-0.826969	1.06356	0.000817119	0.00100693	0.000108648	286021	-1.87388e+06	-165937	
36520	0.509995	-0.823474	1.06372	0.000980151	-6.11868e-05	1.40636e-05	180602	4.65606e+06	218137	
36549	0.509476	-0.820934	1.06377	0.00113727	0.00398959	0.000203842	-691547	3.38787e+06	64217.3	
36580	0.509501	-0.821408	1.06376	0.00063936	0.00642885	0.000250079	32483.1	-633857	-8960.87	
36609	0.509537	-0.821136	1.06376	0.000647156	0.00627673	0.000247928	48158.5	364682	2994.31	
36639	0.509661	-0.823741	1.06353	0.000668827	0.00644083	0.000249276	167330	-3.49364e+06	-315798	
36669	0.509695	-0.823865	1.06359	0.000739106	0.00497351	0.000116641	45360.2	-166675	76079.9	
36700	0.510041	-0.825696	1.06336	0.00074591	0.00494851	0.000128053	465628	-2.46571e+06	-306238	
36729	0.510054	-0.826068	1.06317	0.000941474	0.00391291	-5.67338e-07	17450.3	-501789	-259996	
36759	0.509964	-0.825174	1.06333	0.000948279	0.00371721	-0.000101966	-120975	1.20811e+06	222458	
36819	0.510644	-0.830044	1.06298	0.00121223	-0.000482418	7.37976e-11	900140	-5.8903e+06	-549048	
36849	0.510644	-0.830044	1.06298	0.00204936	-0.0059604	-0.000510614	900140	-5.8903e+06	-549048	
36879	0.51069	-0.830922	1.06285	0.00237341	-0.0080809	-0.000708271	63228.3	-1.19267e+06	-184938	
36910	0.510752	-0.830553	1.06291	0.00238669	-0.00833136	-0.000747108	83391	501741	83200.8	
36939	0.510417	-0.828865	1.06308	0.00242922	-0.00807547	-0.000704676	-456044	2.30206e+06	236655	
36970	0.510417	-0.828865	1.06308	0.00177252	-0.00476051	-0.000363892	-456044	2.30206e+06	236655	
36999	0.50979	-0.823349	1.06365	0.00171779	-0.00448426	-0.000335493	-858021	7.54941e+06	780842	
37029	0.511228	-0.833302	1.06284	0.00133168	-0.00108703	1.58856e-05	1.97038e+06	-1.36362e+07	-1.11339e+06	
37089	0.512066	-0.82825	1.06284	0.000753131	0.000329263	1.20265e-10	152611	-1.01591e+06	-192172	
37180	0.512367	-0.829316	1.06313	0.000498966	0.000903776	1.57534e-10	2.0271e+06	-1.28102e+07	-1.12634e+06	
37209	0.511454	-0.823106	1.06363	0.000803031	-0.00101776	-0.000168952	-1.26336e+06	8.59519e+06	690946	
37239	0.511454	-0.823106	1.06363	-0.000523498	0.00800719	0.000556542	-1.26336e+06	8.59519e+06	690946	
37270	0.511573	-0.82304	1.06344	-0.00116781	0.0123907	0.000908924	165308	92153.6	-265604	
37299	0.511445	-0.822459	1.06363	-0.00103887	0.0124626	0.000701753	-178553	806854	269512	
37330	0.511371	-0.821603	1.0638	-0.00117279	0.0130678	0.000903887	-103298	1.19136e+06	228759	
37359	0.511371	-0.821603	1.0638	-0.00134013	0.0149978	0.00127448	-103298	1.19136e+06	228759	
37390	0.512247	-0.827306	1.06323	-0.00136492	0.0152837	0.00132938	1.22433e+06	-7.96991e+06	-797134	
37419	0.512281	-0.827584	1.0633	-0.000740513	0.011219	0.000922842	47944.4	-387985	103575	
37450	0.509208	-0.82246	1.0639	-0.000698801	0.0108815	0.00101295	-4.3036e+06	7.17562e+06	838966	
37510	0.535599	-0.812732	1.0765	0.00174232	0.00117207	1.23545e-10	3.41651e+07	1.36147e+07	1.82391e+07	
37539	0.535599	-0.812732	1.0765	0.0447903	0.0183266	0.0229813	3.41651e+07	1.36147e+07	1.82391e+07	
37570	0.536706	-0.811878	1.08082	0.0704141	0.0285377	0.0366606	1.5595e+06	1.20372e+06	6.08898e+06	
37599	0.53677	-0.810343	1.07998	0.0716773	0.0295127	0.0415927	90583.3	2.16795e+06	-1.19428e+06	
37630	0.534974	-0.812196	1.07864	0.0717398	0.0310086	0.0407686	-2.53954e+06	-2.62101e+06	-1.88709e+06	
37659	0.536926	-0.811852	1.08143	0.0707494	0.0299864	0.0400327	2.76636e+06	486776	3.95677e+06	
37690	0.534627	-0.813004	1.07959	0.0722432	0.0302493	0.0421693	-3.26239e+06	-1.63443e+06	-2.62149e+06	
37719	0.535662	-0.814943	1.08029	0.0707751	0.0295138	0.0409897	1.47059e+06	-2.75715e+06	996413	
37750	0.535327	-0.813236	1.08242	0.0718781	0.0274459	0.041737	-476204	2.42939e+06	3.02621e+06	
37839	0.534806	-0.814511	1.08117	0.00233034	0.000459054	4.53568e-10	1.33185e+06	-43521.2	373457	
37869	0.535039	-0.814895	1.08159	0.00241025	0.000456442	2.24079e-05	-378194	-4.76456e+06	2.63227e+06	
37899	0.537198	-0.810339	1.07775	0.00228545	-0.00111586	0.000891057	3.09937e+06	6.53965e+06	-5.51263e+06	
37929	0.537198	-0.810339	1.07775	0.00609767	0.00692791	-0.00588948	3.09937e+06	6.53965e+06	-5.51263e+06	
37960	0.537198	-0.810339	1.07775	0.0127923	0.0210535	-0.0177968	3.09937e+06	6.53965e+06	-5.51263e+06	
37989	0.533507	-0.815254	1.07772	0.0132572	0.0220345	-0.0186237	-1.17271e+06	-2.66388e+06	-766579	
38020	0.537385	-0.809928	1.07811	0.0126943	0.0207558	-0.0189916	5.60118e+06	7.69176e+06	567638	
38049	0.537857	-0.807124	1.07698	0.0148788	0.0237556	-0.0187702	682245	4.05602e+06	-1.64097e+06	
38080	0.535851	-0.810591	1.0822	0.0152062	0.0257025	-0.0195579	-2.90565e+06	-5.02206e+06	7.56858e+06	
38229	0.532825	-0.81827	1.07613	0.000901103	-0.000647452	4.92814e-10	-5.14284e+06	-7.99083e+06	-2.57386e+06	
38259	0.536447	-0.811963	1.0777	-0.00341888	-0.00735975	-0.00216204	5.2941e+06	9.21743e+06	2.29844e+06	
38289	0.534538	-0.812077	1.07739	-0.0021483	-0.00514757	-0.00161042	-2.79769e+06	-166778	-457615	
38319	0.531834	-0.816365	1.07764	-0.00365905	-0.00523763	-0.00185753	-3.96716e+06	-6.29021e+06	364234	
38349	0.534009	-0.814608	1.07921	-0.00711048	-0.0107101	-0.00154065	3.19438e+06	2.57993e+06	2.30409e+06	
38409	0.536446	-0.809685	1.07482	0.000854793	0.000439005	3.402e-10	3.77008e+06	2.51549e+06	1.17251e+06	
38439	0.536446	-0.809685	1.07482	0.00831954	0.00541967	0.00232158	3.77008e+06	2.51549e+06	1.17251e+06	
38470	0.534681	-0.814424	1.07592	0.0113733	0.00745721	0.00327131	-2.6076e+06	-7.00393e+06	1.62301e+06	
38499	0.549692	-0.792664	1.08153	0.0111386	0.00682686	0.00341738	1.63973e+07	2.29916e+07	-23048.8	
38530	0.548092	-0.797664	1.07962	0.0175336	0.0157936	0.00340839	-2.37357e+06	-7.41889e+06	-2.82939e+06	
38559	0.547017	-0.798984	1.07971	0.0161094	0.0113423	0.00171076	-1.59752e+06	-1.96007e+06	130994	
38589	0.549006	-0.795867	1.07801	0.015774	0.0109306	0.00173827	2.96129e+06	4.64049e+06	-2.52161e+06	
38619	0.545478	-0.80073	1.08004	0.0164847	0.0120444	0.00113308	-5.25949e+06	-7.24966e+06	3.02649e+06	
38649	0.541203	-0.805371	1.0818	0.015538	0.0107394	0.00167785	-6.38364e+06	-6.93069e+06	2.62194e+06	
38679	0.54153	-0.80381	1.07968	0.0140059	0.00907606	0.00230712	488713	2.33382e+06	-3.17323e+06	
38709	0.54153	-0.80381	1.07968	0.014563	0.0117366	-0.00131036	488713	2.33382e+06	-3.17323e+06	
38740	0.543618	-0.800508	1.08192	0.0150029	0.0138371	-0.00416626	3.12841e+06	4.94863e+06	3.36091e+06	
38769	0.538717	-0.806215	1.07977	0.0162229	0.015767	-0.00285551	-7.36128e+06	-8.57187e+06	-3.22594e+06	
38799	0.543124	-0.800958	1.07806	0.0109228	0.00959528	-0.00517818	6.62686e+06	7.90326e+06	-2.57897e+06	
38829	0.541535	-0.802892	1.07613	0.0119168	0.0107808	-0.00556503	-2.39605e+06	-2.91524e+06	-2.90036e+06	
38859	0.538336	-0.807394	1.07727	0.0107667	0.00938145	-0.0069572	-4.82679e+06	-6.7924e+06	1.71992e+06	
38919	0.540479	-0.803078	1.08043	-0.000143461	0.000602381	4.83603e-10	3.24e+06	6.52378e+06	4.77004e+06	
38979	0.535734	-0.815563	1.08083	0.000847796	0.00141532	2.51392e-10	733334	-1.21523e+07	427666	
39010	0.535579	-0.813162	1.08508	0.0010238	-0.00150122	0.00010264	855183	2.40001e+06	-891663	
39039	0.534904	-0.81365	1.0801	0.00130601	-0.000709217	-0.000191609	-1.02797e+06	-743050	-7.58257e+06	
39069	0.534904	-0.81365	1.0801	4.16018e-05	-0.00162317	-0.00951818	-1.02797e+06	-743050	-7.58257e+06	
39099	0.535469	-0.815199	1.07729	-8.17548e-05	-0.00171233	-0.0104281	3.81478e+06	1.50886e+06	965812	
39129	0.534213	-0.815537	1.07953	0.000833792	-0.00135021	-0.0101963	-1.92265e+06	-518683	3.42724e+06	
39159	0.534213	-0.815537	1.07953	-0.00135803	-0.00194151	-0.00628923	-1.92265e+06	-518683	3.42724e+06	
39189	0.543716	-0.802798	1.08079	-0.00251162	-0.00225272	-0.00423289	1.45792e+07	1.95443e+07	1.93909e+06	
39219	0.538093	-0.808532	1.08147	0.00973493	0.0141645	-0.00260406	-8.63606e+06	-8.80614e+06	1.05024e+06	
39249	0.536757	-0.810757	1.08568	0.00481238	0.00914501	-0.00200542	-2.05664e+06	-3.42372e+06	6.47937e+06	
39279	0.538072	-0.810853	1.08299	0.0030848	0.00626908	0.00343725	2.02706e+06	-148075	-4.15872e+06	
39309	0.537301	-0.810654	1.08606	0.00332804	0.00625131	0.0029382	-1.19139e+06	307324	4.75029e+06	
39339	0.537301	-0.810654	1.08606	0.00211283	0.00656478	0.0077835	-1.19139e+06	307324	4.75029e+06	
39369	0.534977	-0.81519	1.08107	0.00107633	0.00683215	0.0119163	-3.59753e+06	-7.02109e+06	-7.72721e+06	
39400	0.531413	-0.818926	1.08308	-2.93371e-06	0.00472583	0.00959809	-5.52884e+06	-5.79624e+06	3.12296e+06	
39489	0.543031	-0.803629	1.077	0.000782583	0.00114247	3.33544e-10	2.12325e+06	4.00246e+06	-1.21351e+06	
39520	0.538438	-0.811525	1.07821	0.00205653	0.00354394	-0.000728106	-7.16769e+06	-1.23196e+07	1.88467e+06	
39549	0.542991	-0.802124	1.07841	-0.00331923	-0.00569579	0.000685393	7.11333e+06	1.46855e+07	306249	
39580	0.5423	-0.800416	1.0793	-0.000331635	0.000472135	0.000814017	-1.08261e+06	2.67506e+06	1.40168e+06	
39609	0.54044	-0.802422	1.08004	-0.000526504	0.000953646	0.00106632	-2.91669e+06	-3.14646e+06	1.15949e+06	
39639	0.535272	-0.81515	1.0817	-0.00201402	-0.000651049	0.00165766	-8.11297e+06	-1.99823e+07	2.59974e+06	
39669	0.53591	-0.812848	1.0793	-0.00834213	-0.0162373	0.00368545	1.00259e+06	3.61738e+06	-3.76535e+06	
39729	0.535581	-0.813235	1.07999	0.000443209	0.000925577	3.39733e-10	-518455	-608325	1.08724e+06	
39790	0.535827	-0.814288	1.08187	0.00014397	0.000804493	3.35516e-10	-4.73534e+06	-1.05192e+07	4.0105e+06	
39850	0.532891	-0.816516	1.08241	-0.000147314	-5.15394e-05	1.27876e-10	105471	3.61114e+06	-3.61484e+06	
39879	0.532891	-0.816516	1.08241	-2.39126e-05	0.0041735	-0.00422936	105471	3.61114e+06	-3.61484e+06	
39909	0.532891	-0.816516	1.08241	0.000194412	0.0116486	-0.0117121	105471	3.61114e+06	-3.61484e+06	
39969	0.530338	-0.822152	1.07538	0.000368402	0.00043022	1.27681e-10	-4.67951e+06	-1.18015e+07	-2.92506e+06	
40000	0.533593	-0.813757	1.07576	-0.003422	-0.009129	-0.0023693	5.20122e+06	1.34135e+07	594200	
40029	0.531773	-0.816925	1.07543	-0.00248578	-0.00671457	-0.00226235	-2.91481e+06	-5.07371e+06	-520350	
40059	0.531743	-0.816205	1.07529	-0.00397233	-0.00930216	-0.00252772	-47858.6	1.15398e+06	-220254	
40089	0.532368	-0.814059	1.07656	-0.00398382	-0.00902521	-0.00258059	1.0034e+06	3.447e+06	2.03103e+06	
40150	0.538597	-0.805372	1.07488	-0.000182779	0.000758343	2.68445e-10	1.00252e+07	1.39813e+07	-2.69296e+06	
40209	0.536914	-0.804287	1.07433	0.000980951	0.000239709	3.62844e-10	4.18989e+06	8.24347e+06	2.34405e+06	
40239	0.540655	-0.803576	1.07417	0.00248931	0.00320736	0.000843858	6.0525e+06	1.1505e+06	-245201	
40299	0.535843	-0.804419	1.07771	0.000574072	0.00116775	3.09903e-10	-6.79342e+06	-3.11392e+06	7.11376e+06	
40329	0.537353	-0.801137	1.07732	-0.00329818	-0.000607186	0.00405485	2.45291e+06	5.33242e+06	-629382	
40359	0.532196	-0.808989	1.0761	-0.00226795	0.00163243	0.0037905	-8.39371e+06	-1.27798e+07	-1.99694e+06	
40389	0.532196	-0.808989	1.0761	-0.0133477	-0.0152368	0.00115455	-8.39371e+06	-1.27798e+07	-1.99694e+06	
40449	0.536592	-0.807791	1.07527	0.00121099	-0.000382704	1.64205e-10	2.05149e+06	4.21853e+06	-2.04448e+06	
40479	0.534891	-0.807988	1.0798	0.0016418	0.000503188	-0.000429341	1.43134e+07	-1.44906e+06	2.2984e+07	
40539	0.536765	-0.806513	1.08084	0.00174053	-0.000799542	3.58018e-10	3.07406e+06	2.41971e+06	1.70538e+06	
40569	0.532206	-0.812151	1.0846	0.00395386	0.000942647	0.00122787	-7.4947e+06	-9.26928e+06	6.19365e+06	
40600	0.533368	-0.809176	1.08351	-0.00234169	-0.00684355	0.00643054	1.914e+06	4.8976e+06	-1.79473e+06	
40659	0.532078	-0.812008	1.08175	0.00134975	0.000226132	2.99546e-10	-4.81411e+06	-4.48732e+06	1.19527e+06	
40689	0.532866	-0.813671	1.07936	-0.00124988	-0.00219702	0.000645444	1.30344e+06	-2.75215e+06	-3.94899e+06	
40720	0.533516	-0.812626	1.07877	-0.00046781	-0.00384831	-0.00172395	1.07767e+06	1.73171e+06	-983025	
40749	0.533516	-0.812626	1.07877	0.00111637	-0.0013027	-0.003169	1.07767e+06	1.73171e+06	-983025	
40780	0.538027	-0.809486	1.0803	0.00143967	-0.000783185	-0.00346391	4.41562e+06	1.8948e+06	560390	
40809	0.539787	-0.805793	1.08246	0.00422151	0.000410538	-0.00311086	2.92838e+06	6.1437e+06	3.60485e+06	
40839	0.532688	-0.814935	1.08188	0.00545143	0.00299089	-0.00159683	-1.18329e+07	-1.52366e+07	-977897	
40869	0.532688	-0.814935	1.08188	-0.0101681	-0.0171214	-0.00288765	-1.18329e+07	-1.52366e+07	-977897	
40899	0.534087	-0.811146	1.07346	-0.0154929	-0.0239778	-0.0033277	2.33849e+06	6.33191e+06	-1.4077e+07	
40930	0.536925	-0.807525	1.07771	-0.0139495	-0.0197988	-0.0126185	4.74987e+06	6.06052e+06	7.12406e+06	
40959	0.538541	-0.803726	1.07803	-0.0106721	-0.015617	-0.00770291	2.70776e+06	6.36613e+06	534685	
40990	0.541706	-0.800157	1.07681	-0.00929111	-0.0123703	-0.00743022	5.31337e+06	5.9913e+06	-2.05584e+06	
41019	0.538502	-0.801712	1.07781	-0.00610308	-0.00877551	-0.00866372	-5.3861e+06	-2.61294e+06	1.69025e+06	
41050	0.536317	-0.807883	1.07745	-0.00836525	-0.00987294	-0.00795382	-3.67861e+06	-1.03927e+07	-615716	
41079	0.535908	-0.811648	1.07686	-0.00935847	-0.012679	-0.00812006	-689391	-6.34975e+06	-989983	
41110	0.537767	-0.810429	1.07656	-0.00981347	-0.0168698	-0.00877345	3.13788e+06	2.05796e+06	-508476	
41139	0.536123	-0.813572	1.07933	-0.0085897	-0.0160672	-0.00897176	-2.78124e+06	-5.31674e+06	4.6895e+06	
41169	0.543174	-0.802053	1.07662	-0.00967438	-0.0181407	-0.00714285	1.1944e+07	1.95121e+07	-4.59712e+06	
41199	0.542721	-0.802427	1.07521	-0.00143299	-0.00467736	-0.0103149	-768589	-634294	-2.3908e+06	
41229	0.542721	-0.802427	1.07521	-0.00265505	-0.00568588	-0.0141162	-768589	-634294	-2.3908e+06	
41289	0.544426	-0.800833	1.07572	0.00130681	0.000645141	3.39807e-10	8.71391e+06	1.0282e+07	3.42729e+06	
41320	0.538029	-0.807273	1.07549	0.00365957	0.00342129	0.000925369	8.22861e+06	1.17157e+07	3.19786e+06	
41349	0.538029	-0.807273	1.07549	0.0130402	0.0167772	0.00457093	8.22861e+06	1.17157e+07	3.19786e+06	
41379	0.538029	-0.807273	1.07549	0.0298265	0.0406773	0.0110946	8.22861e+06	1.17157e+07	3.19786e+06	
41409	0.538029	-0.807273	1.07549	0.0540187	0.0751216	0.0204963	8.22861e+06	1.17157e+07	3.19786e+06	
41439	0.545407	-0.800323	1.0745	0.0547592	0.076176	0.0207841	5.56246e+06	4.70578e+06	48930.2	
41470	0.546064	-0.800623	1.07555	0.0572623	0.0782936	0.0208061	1.12971e+06	-516959	1.80408e+06	
41530	0.542486	-0.803505	1.07474	0.00153208	0.000236578	1.69531e-10	-3.83399e+06	-7.20653e+06	1.58403e+06	
41559	0.543224	-0.800801	1.07196	-0.00145843	-0.00538451	0.00123554	1.27253e+06	4.66454e+06	-4.78985e+06	
41590	0.54325	-0.798115	1.07435	-0.000771266	-0.00286566	-0.00135098	44906.2	4.64159e+06	4.12557e+06	
41619	0.538004	-0.808034	1.07416	-0.000744322	-8.07064e-05	0.00112437	-9.07687e+06	-1.71644e+07	-330868	
41649	0.538004	-0.808034	1.07416	-0.0143596	-0.0258273	0.000628067	-9.07687e+06	-1.71644e+07	-330868	
41680	0.538396	-0.806438	1.07666	-0.0217119	-0.0397304	0.000360064	679775	2.76838e+06	4.3409e+06	
41769	0.545062	-0.790719	1.07054	0.000614315	0.00112781	9.23091e-11	4.08584e+06	8.79383e+06	-5.75017e+06	
41800	0.545062	-0.790719	1.07054	0.00576247	0.012208	-0.00724522	4.08584e+06	8.79383e+06	-5.75017e+06	
41860	0.538091	-0.802493	1.0711	0.00160113	0.000235949	5.11524e-10	-1.21939e+07	-2.05967e+07	969811	
41889	0.543549	-0.796899	1.07588	-0.00791012	-0.0158295	0.000756453	9.56442e+06	9.80483e+06	8.39024e+06	
41920	0.550705	-0.793179	1.07525	-0.0050408	-0.012888	0.00327353	1.25542e+07	3.59439e+06	-6.78391e+06	
41949	0.546509	-0.799837	1.07798	0.00249171	-0.0107314	-0.000796818	-7.37761e+06	-1.17064e+07	4.80827e+06	
41979	0.552179	-0.794313	1.07768	-0.000164225	-0.0149457	0.000934158	9.9859e+06	9.72977e+06	-525543	
42069	0.548691	-0.79826	1.07717	0.00154255	0.000809869	2.94351e-10	294671	3.22452e+06	-1.18313e+06	
42099	0.549673	-0.795599	1.07827	0.00177239	0.00332499	-0.00092284	1.73833e+06	4.71029e+06	1.93476e+06	
42130	0.550564	-0.794233	1.07815	0.00198099	0.00389023	-0.000690669	675221	1.80197e+06	-926518	
42159	0.548524	-0.801353	1.07971	0.00218356	0.00443082	-0.000968624	-3.62441e+06	-1.26487e+07	2.77382e+06	
42190	0.548524	-0.801353	1.07971	-0.00227447	-0.0111271	0.00244317	-3.62441e+06	-1.26487e+07	2.77382e+06	
42219	0.549444	-0.801821	1.07957	-0.00434038	-0.0183369	0.00402425	1.63839e+06	-833912	-240156	
42250	0.548077	-0.801243	1.07829	-0.00335735	-0.0188372	0.00388016	-2.43819e+06	1.03125e+06	-2.28622e+06	
42279	0.54195	-0.799806	1.07745	-0.00467398	-0.0182803	0.0026456	-1.09421e+07	2.56636e+06	-1.51014e+06	
42310	0.5487	-0.800162	1.0774	-0.0115675	-0.0166635	0.00169421	1.20717e+07	-636236	-76781.4	
42339	0.5487	-0.800162	1.0774	0.00654001	-0.0176179	0.00157904	1.20717e+07	-636236	-76781.4	
42399	0.541518	-0.80708	1.07672	0.001427	0.00056981	1.83486e-10	-9.24067e+06	-1.60105e+07	1.88894e+06	
42429	0.544165	-0.805598	1.07911	4.08996e-05	-0.00183176	0.000283341	-1.03627e+07	-1.09242e+07	940343	
42460	0.544165	-0.805598	1.07911	-0.0111508	-0.0136299	0.00129891	-1.03627e+07	-1.09242e+07	940343	
42520	0.542136	-0.81094	1.07849	0.000293815	0.000274671	1.65779e-10	-2.73878e+06	-8.33031e+06	-2.11094e+06	
42549	0.542136	-0.81094	1.07849	-0.00266407	-0.00872206	-0.00227981	-2.73878e+06	-8.33031e+06	-2.11094e+06	
42580	0.54358	-0.80836	1.07992	-0.00397869	-0.0127206	-0.00329307	2.61603e+06	4.67425e+06	2.5876e+06	
42609	0.547514	-0.798834	1.07713	-0.00256603	-0.0101965	-0.00189576	7.13701e+06	1.7281e+07	-5.05793e+06	
42639	0.553209	-0.79052	1.07685	-0.00170959	-0.0081228	-0.00250271	1.03518e+07	1.51121e+07	-508210	
42669	0.545997	-0.802045	1.07799	0.00294871	-0.00132237	-0.00273141	-1.31217e+07	-2.09685e+07	2.06566e+06	
42699	0.55143	-0.797364	1.07833	-0.00295606	-0.0107582	-0.00180186	9.89743e+06	8.52896e+06	612035	
42730	0.542682	-0.807233	1.07905	1.31643e-05	-0.00819953	-0.00161825	-1.59641e+07	-1.80113e+07	1.31809e+06	
42759	0.542682	-0.807233	1.07905	-0.0186648	-0.0292728	-7.60874e-05	-1.59641e+07	-1.80113e+07	1.31809e+06	
42790	0.543854	-0.806544	1.07723	-0.023933	-0.0352165	0.000358882	3.37489e+06	3.74993e+06	-3.91781e+06	
42819	0.543854	-0.806544	1.07723	-0.0198831	-0.0307166	-0.00434249	3.37489e+06	3.74993e+06	-3.91781e+06	
42849	0.548234	-0.795282	1.07859	-0.0190731	-0.0298166	-0.00528277	8.03946e+06	2.06692e+07	2.49541e+06	
42879	0.547845	-0.794051	1.077	-0.0159377	-0.0217556	-0.00430956	-714296	2.26251e+06	-2.9217e+06	
42909	0.544432	-0.801652	1.08125	-0.0162377	-0.0208053	-0.00553667	-6.28092e+06	-1.39864e+07	7.81734e+06	
42939	0.547053	-0.800676	1.08115	-0.019441	-0.0279384	-0.00154983	4.82956e+06	1.79933e+06	-189593	
42970	0.548034	-0.79879	1.07956	-0.0161086	-0.0266968	-0.00168065	1.80993e+06	3.47832e+06	-2.92554e+06	
42999	0.549262	-0.796136	1.08053	-0.015457	-0.0254447	-0.00273384	2.26936e+06	4.90460e+06	1.78172e+06	
43029	0.54822	-0.796601	1.0787	-0.0144358	-0.0232376	-0.00193206	-1.92819e+06	-860535	-3.37166e+06	
43060	0.539464	-0.811423	1.07921	-0.0155349	-0.0237281	-0.00385391	-1.6221e+07	-2.74581e+07	930929	
43089	0.541257	-0.811307	1.0794	-0.0174814	-0.0270231	-0.0037422	3.32921e+06	216277	368068	
43120	0.540677	-0.812271	1.0795	-0.0157835	-0.0269128	-0.00355449	-1.07727e+06	-1.7917e+06	183236	
43179	0.54353	-0.807933	1.07961	0.000702966	0.000876461	3.5433e-10	5.3107e+06	8.07461e+06	204561	
43210	0.537676	-0.816633	1.07865	0.00229618	0.00329884	6.13687e-05	-2.08397e+07	-3.29691e+07	2.23429e+06	
43239	0.537676	-0.816633	1.07865	-0.0220863	-0.035275	0.00267549	-2.08397e+07	-3.29691e+07	2.23429e+06	
43299	0.541321	-0.810221	1.07787	0.0010495	0.000474689	2.15776e-10	7.69952e+06	1.49809e+07	-1.55783e+06	
43330	0.544604	-0.802366	1.0773	0.00220443	0.00272182	-0.000233674	6.16151e+06	1.47454e+07	-1.08123e+06	
43359	0.545445	-0.801482	1.07924	0.00460741	0.00847254	-0.000655353	1.5815e+06	1.65937e+06	3.65559e+06	
43389	0.545007	-0.803992	1.08325	0.0047972	0.00867166	-0.000216682	-824343	-4.72378e+06	7.54206e+06	
43419	0.537335	-0.811031	1.08203	0.00442624	0.00654596	0.00317725	-1.44544e+07	-1.326e+07	-2.29299e+06	
43449	0.539274	-0.808527	1.08299	-0.00251187	0.000181162	0.00207661	3.65886e+06	4.7237e+06	1.81239e+06	
43480	0.538712	-0.809238	1.08343	-0.00207281	0.000748006	0.0022941	-1.06264e+06	-1.34561e+06	831590	
43509	0.540819	-0.803558	1.07923	-0.00251911	0.000182848	0.00264337	3.98575e+06	1.07456e+07	-7.95018e+06	
43569	0.537845	-0.804155	1.07787	0.000808688	0.000365772	1.41729e-10	1.16636e+07	-2.70584e+06	1.4162e+07	
43600	0.535517	-0.808277	1.07957	0.00430778	-0.000445981	0.00424859	-4.42328e+06	-7.83347e+06	3.23376e+06	
43629	0.535517	-0.808277	1.07957	-0.00086746	-0.00961114	0.00803209	-4.42328e+06	-7.83347e+06	3.23376e+06	
43660	0.538825	-0.80423	1.07926	-0.00378682	-0.0147812	0.0101664	6.2983e+06	7.70636e+06	-578869	
43689	0.538825	-0.80423	1.07926	0.00584957	-0.00299049	0.0092807	6.2983e+06	7.70636e+06	-578869	
43720	0.538821	-0.803772	1.07614	0.00641642	-0.00229691	0.0092286	2.27661e+06	6.34079e+06	2.47124e+06	
43749	0.542406	-0.80127	1.07573	0.0073043	0.000175997	0.0101924	6.85714e+06	4.78503e+06	-794001	
43780	0.542438	-0.801787	1.07542	0.0110072	0.00275991	0.00976363	63049.8	-988999	-575564	
43809	0.542438	-0.801787	1.07542	0.0110961	0.00136542	0.00895208	63049.8	-988999	-575564	
43840	0.542438	-0.801787	1.07542	0.0112436	-0.000948837	0.00760526	63049.8	-988999	-575564	
43899	0.535362	-0.808112	1.08152	0.00058971	0.000266715	1.73537e-10	1.4304e+06	258018	5.91288e+06	
43929	0.536025	-0.807902	1.08333	0.00119048	0.000375083	0.00248341	1.27845e+06	404657	3.49463e+06	
43990	0.5328	-0.807468	1.07875	0.000530794	0.000240061	3.82298e-10	-4.67799e+06	-1.9191e+06	-5.8748e+06	
44019	0.533027	-0.808163	1.07895	-0.00311804	-0.00125684	-0.00458234	439171	-1.34482e+06	388251	
44050	0.543025	-0.795365	1.0741	-0.00280184	-0.00222511	-0.0043028	1.93798e+07	2.48069e+07	-9.39032e+06	
44079	0.541764	-0.798302	1.07436	0.00882603	0.012659	-0.009937	-2.44913e+06	-5.70277e+06	508014	
44109	0.538345	-0.799965	1.07515	0.00816477	0.0111193	-0.00979983	-6.64935e+06	-3.2338e+06	1.52072e+06	
44140	0.54014	-0.797004	1.07451	0.00397567	0.00908196	-0.00884178	3.495e+06	5.76327e+06	-1.23579e+06	
44169	0.539728	-0.797017	1.07596	0.00586297	0.0121941	-0.00950911	-802786	-25234.6	2.82645e+06	
44200	0.539728	-0.797017	1.07596	0.00468288	0.012157	-0.00535422	-802786	-25234.6	2.82645e+06	
44229	0.539728	-0.797017	1.07596	0.00280436	0.012098	0.00125969	-802786	-25234.6	2.82645e+06	
44259	0.538165	-0.79844	1.07567	0.00256352	0.0120904	0.00210762	556534	2.67891e+06	1.69477e+06	
44289	0.533458	-0.804504	1.07837	0.00291414	0.0137781	0.00317532	-9.22227e+06	-1.1883e+07	5.29435e+06	
44319	0.540749	-0.797364	1.07785	-0.00012921	0.00985673	0.00492246	1.43119e+07	1.40154e+07	-1.01219e+06	
44349	0.535207	-0.804435	1.08241	0.00588181	0.0157432	0.00449734	-1.08919e+07	-1.38974e+07	8.95914e+06	
44379	0.542604	-0.798857	1.07448	-0.00228711	0.00532016	0.0112167	1.45504e+07	1.09736e+07	-1.56035e+07	
44410	0.537842	-0.805428	1.08269	0.0064431	0.0119043	0.0018546	-9.3819e+06	-1.29488e+07	1.61759e+07	
44439	0.540539	-0.805048	1.07938	0.00222125	0.00607737	0.00913375	5.32181e+06	750806	-6.5389e+06	
44470	0.536589	-0.807021	1.07995	0.00669156	0.00670804	0.00364108	-7.80082e+06	-3.89834e+06	1.13384e+06	
44499	0.541623	-0.803788	1.07619	0.00107497	0.00390124	0.00445744	9.95754e+06	6.3955e+06	-7.43614e+06	
44530	0.542898	-0.798216	1.08303	0.00734822	0.0079304	-0.000227334	2.52451e+06	1.10379e+07	1.35502e+07	
44560	0.542355	-0.801452	1.07951	0.00825704	0.011904	0.00465074	-1.07687e+06	-6.42039e+06	-6.99537e+06	
44589	0.542406	-0.798296	1.07941	0.00754631	0.00766658	3.37967e-05	101647	6.26771e+06	-188866	
44620	0.551346	-0.788219	1.07746	0.0075951	0.0106751	-5.68587e-05	1.77843e+07	2.00469e+07	-3.87272e+06	
44649	0.546107	-0.794986	1.08099	0.0177321	0.0221018	-0.00226431	-1.04354e+07	-1.34782e+07	7.02282e+06	
44680	0.546107	-0.794986	1.08099	0.0020791	0.00188455	0.00826992	-1.04354e+07	-1.34782e+07	7.02282e+06	
44769	0.533823	-0.813958	1.07482	0.000241634	0.000109271	3.40839e-10	-8.06361e+06	-9.77274e+06	-5.03568e+06	
44799	0.533823	-0.813958	1.07482	-0.0145148	-0.0177749	-0.0092153	-8.06361e+06	-9.77274e+06	-5.03568e+06	
44829	0.533823	-0.813958	1.07482	-0.0365284	-0.0444544	-0.0229627	-8.06361e+06	-9.77274e+06	-5.03568e+06	
44859	0.542786	-0.801587	1.08081	-0.0387056	-0.0470931	-0.0243223	1.98829e+07	2.31375e+07	-4.26193e+06	
44919	0.538994	-0.798906	1.08351	0.000211049	9.54368e-05	1.79442e-10	1.03152e+06	-753168	-4.67039e+06	
44949	0.542931	-0.798963	1.08097	0.000706179	-0.000266084	-0.00224179	7.94866e+06	-113947	-5.12123e+06	
44979	0.536869	-0.808236	1.0854	0.00452154	-0.000320779	-0.00469998	-1.22557e+07	-1.87471e+07	8.94117e+06	
45009	0.539433	-0.803214	1.0873	0.0012125	-0.0053825	-0.00228586	5.19196e+06	1.01687e+07	3.84993e+06	
45040	0.539796	-0.807564	1.08838	0.00448343	0.0010238	0.000139596	735661	-8.81604e+06	2.20481e+06	
45069	0.539796	-0.807564	1.08838	0.00558692	-0.0122003	0.00344682	735661	-8.81604e+06	2.20481e+06	
45129	0.537078	-0.809434	1.08195	0.000169278	7.65471e-05	3.00642e-10	-1.07171e+07	-1.25935e+07	-992068	
45189	0.537498	-0.799391	1.07348	0.000159395	7.20786e-05	4.164e-10	2.88063e+06	2.07646e+07	-3.51748e+06	
45219	0.54748	-0.794966	1.08313	0.00249271	0.0168914	-0.00284916	2.03861e+07	9.038e+06	1.97038e+07	
45250	0.542139	-0.796879	1.07832	0.015336	0.0225854	0.00956422	-1.09252e+07	-3.91341e+06	-9.8324e+06	
45279	0.542139	-0.796879	1.07832	-0.00105184	0.0167152	-0.00518438	-1.09252e+07	-3.91341e+06	-9.8324e+06	
45310	0.526567	-0.813556	1.07197	-0.00760696	0.0143672	-0.0110838	-3.19424e+07	-3.42082e+07	-1.30339e+07	
45339	0.532591	-0.805026	1.07077	-0.0171897	0.00410473	-0.014994	1.90877e+07	2.84641e+07	-1.04115e+07	
45370	0.525369	-0.821781	1.07733	-0.00516439	0.0220371	-0.0215533	-1.48517e+07	-3.44563e+07	1.34873e+07	
45400	0.536873	-0.806218	1.07221	-0.0131843	0.0034307	-0.0142701	2.36924e+07	3.20523e+07	-1.0556e+07	
45429	0.53972	-0.801991	1.07328	-0.00181197	0.0188158	-0.019337	5.87207e+06	8.7175e+06	2.21995e+06	
45549	0.537247	-0.79007	1.06488	0.000111104	5.02505e-05	-4.48342e-11	94658.3	1.95775e+07	3.13415e+06	
45580	0.537247	-0.79007	1.06488	0.000213335	0.0211939	0.00338489	94658.3	1.95775e+07	3.13415e+06	
45639	0.532257	-0.795051	1.06393	0.000103051	4.66404e-05	-2.63705e-10	-1.21312e+07	-7.73237e+06	-4.24121e+06	
45669	0.543435	-0.802044	1.07798	-0.00462813	-0.00296898	-0.00165407	2.32987e+07	-1.45767e+07	2.92869e+07	
45700	0.537862	-0.801394	1.07744	0.01005	-0.0121523	0.0167967	-1.16284e+07	1.35563e+06	-1.13059e+06	
45729	0.532651	-0.790681	1.06566	0.0051661	-0.011583	0.0163218	-1.089e+07	2.23895e+07	-2.4613e+07	
45759	0.532651	-0.790681	1.06566	-0.00920875	0.0179711	-0.0161673	-1.089e+07	2.23895e+07	-2.4613e+07	
45819	0.532415	-0.786223	1.05668	8.51525e-05	3.8591e-05	-8.11867e-10	-8.53004e+06	-1.75539e+07	1.45325e+06	
45879	0.549084	-0.753768	1.02966	7.97869e-05	3.61437e-05	-4.58961e-10	-2.03448e+07	-9.27633e+06	-2.20147e+07	
45910	0.549084	-0.753768	1.02966	-0.0200616	-0.00914742	-0.0217945	-2.03448e+07	-9.27633e+06	-2.20147e+07	
45939	0.54973	-0.744173	1.02276	-0.0371513	-0.0169395	-0.0402869	1.36217e+06	2.02262e+07	-1.45482e+07	
45969	0.547773	-0.748658	1.02084	-0.0359253	0.00126404	-0.0533803	-4.13021e+06	-9.46642e+06	-4.04825e+06	
46000	0.540429	-0.749749	1.00732	-0.0364209	0.000128065	-0.0538661	-1.55362e+07	-2.30825e+06	-2.86084e+07	
46029	0.524694	-0.753806	0.991228	-0.0434122	-0.000910646	-0.0667399	-3.33153e+07	-8.58911e+06	-3.4066e+07	
46060	0.537174	-0.734293	0.962528	-0.0594035	-0.00503342	-0.0830915	2.64583e+07	4.13694e+07	-6.08462e+07	
46089	0.543562	-0.732967	0.981229	-0.0530536	0.00489523	-0.0976946	1.35646e+07	2.81416e+06	3.97113e+07	
46149	0.545827	-0.729982	0.927024	0.0125013	-0.0250872	-3.62718e-09	4.81508e+06	6.34511e+06	-1.15217e+08	
46179	0.529106	-0.739698	0.915226	0.0159682	-0.0205187	-0.0829561	-3.56211e+07	-2.06968e+07	-2.51331e+07	
46239	0.525496	-0.734605	0.900458	0.0355964	-0.0877306	-3.56723e-09	-7.70748e+06	1.08732e+07	-3.15292e+07	
46269	0.539577	-0.705923	0.873979	0.030047	-0.0799019	-0.022701	3.01144e+07	6.13378e+07	-5.66288e+07	
46300	0.547751	-0.703997	0.844048	0.0390813	-0.0615005	-0.0396896	1.75143e+07	4.12683e+06	-6.41308e+07	
46329	0.52626	-0.730286	0.828042	0.0490645	-0.0591482	-0.0762442	-4.60912e+07	-5.63784e+07	-3.43269e+07	
46359	0.517711	-0.726291	0.803429	0.0297062	-0.0828272	-0.0906615	-1.83609e+07	8.5793e+06	-5.28648e+07	
46419	0.524676	-0.713928	0.691121	0.230237	-0.298639	4.67788e-10	4.85996e+06	-1.70564e+07	-7.21588e+07	
46449	0.524436	-0.702743	0.649621	0.232861	-0.307849	-0.0389657	-516602	2.41128e+07	-8.94664e+07	
46479	0.543218	-0.695364	0.593385	0.232613	-0.296275	-0.0819096	4.0547e+07	1.59307e+07	-1.21402e+08	
46509	0.522607	-0.702569	0.576057	0.24721	-0.29054	-0.125614	-4.45611e+07	-1.55776e+07	-3.74627e+07	
46539	0.522607	-0.702569	0.576057	0.191063	-0.310168	-0.172817	-4.45611e+07	-1.55776e+07	-3.74627e+07	
46569	0.527707	-0.695893	0.554245	0.154969	-0.322786	-0.203162	1.10481e+07	1.44614e+07	-4.7249e+07	
46599	0.534318	-0.678558	0.520729	0.16458	-0.310204	-0.244269	1.43376e+07	3.75952e+07	-7.26882e+07	
46630	0.52989	-0.688338	0.499088	0.175334	-0.282008	-0.298785	-9.61879e+06	-2.12429e+07	-4.70041e+07	
46659	0.535744	-0.69195	0.456246	0.168408	-0.297303	-0.332628	1.27328e+07	-7.85535e+06	-9.31757e+07	
46690	0.510704	-0.698308	0.439724	0.17834	-0.30343	-0.405305	-5.45254e+07	-1.38434e+07	-3.59767e+07	
46779	0.492721	-0.723446	0.342316	0.0800342	-0.178033	7.58628e-10	-7.42667e+07	-6.59626e+07	-5.083e+07	
46839	0.517183	-0.698348	0.322926	0.0449658	-0.169944	5.78326e-09	5.35877e+07	5.49806e+07	-4.24798e+07	
46870	0.511957	-0.709668	0.303894	0.0899795	-0.12376	-0.035683	-1.14663e+07	-2.48368e+07	-4.17581e+07	
46929	0.5091	-0.704977	0.268163	0.041454	-0.0583474	3.30526e-09	1.31098e+07	2.57908e+07	-5.62346e+07	
46959	0.505202	-0.702827	0.259775	0.0493199	-0.0428729	-0.0337407	-8.58887e+06	4.73766e+06	-1.84805e+07	
46990	0.50194	-0.712566	0.255935	0.0428782	-0.0393197	-0.0476011	-7.19566e+06	-2.1483e+07	-8.47123e+06	
47019	0.495085	-0.706455	0.250373	0.036618	-0.0580099	-0.0549711	-1.51358e+07	1.34933e+07	-1.22819e+07	
47050	0.496184	-0.694078	0.248521	0.030715	-0.0527475	-0.0597611	2.43215e+06	2.73843e+07	-4.09577e+06	
47079	0.503378	-0.693992	0.250648	0.0313717	-0.0453538	-0.0608669	1.59386e+07	191589	4.71245e+06	
47110	0.495398	-0.697951	0.260979	0.0395004	-0.0452561	-0.0584636	-1.76974e+07	-8.78081e+06	2.29112e+07	
47139	0.498631	-0.683742	0.257604	0.0272892	-0.0513148	-0.0426548	7.17615e+06	3.15434e+07	-7.49232e+06	
47170	0.507071	-0.678928	0.261037	0.0292267	-0.0427981	-0.0446778	1.87712e+07	1.07061e+07	7.63475e+06	
47199	0.491116	-0.682971	0.273163	0.0376738	-0.0379804	-0.0412421	-3.55196e+07	-8.99994e+06	2.69977e+07	
47229	0.491116	-0.682971	0.273163	-0.0102777	-0.0501303	-0.00479525	-3.55196e+07	-8.99994e+06	2.69977e+07	
47259	0.5043	-0.677541	0.290989	-0.0188024	-0.0522903	0.00168419	2.94339e+07	1.21236e+07	3.97987e+07	
47289	0.521716	-0.669462	0.302076	-0.0064402	-0.0471983	0.0183997	3.89239e+07	1.80545e+07	2.47783e+07	
47319	0.513892	-0.676586	0.309371	0.0192496	-0.0352824	0.0347533	-1.75027e+07	-1.59365e+07	1.63202e+07	
47349	0.51755	-0.675924	0.322812	0.00769777	-0.0458004	0.0455246	8.19357e+06	1.48232e+06	3.01059e+07	
47379	0.52547	-0.67275	0.332719	0.0123681	-0.0449555	0.062685	1.77651e+07	7.12022e+06	2.22209e+07	
47409	0.528021	-0.656885	0.341258	0.0262249	-0.0394018	0.0800173	5.72818e+06	3.56198e+07	1.91717e+07	
47440	0.524069	-0.658442	0.350585	0.0291462	-0.0212357	0.0897948	-8.88901e+06	-3.5022e+06	2.09753e+07	
47469	0.523216	-0.6677	0.349108	0.0230128	-0.0236522	0.104268	-1.91989e+06	-2.08407e+07	-3.32519e+06	
47500	0.526333	-0.656106	0.35387	0.0216305	-0.0386575	0.101874	7.02499e+06	2.61316e+07	1.07333e+07	
47529	0.523769	-0.656806	0.356993	0.0268992	-0.0190588	0.109924	-5.78626e+06	-1.57834e+06	7.04762e+06	
47589	0.524299	-0.657172	0.357268	0.017677	0.0231975	-1.21562e-09	1.19915e+06	-827268	620688	
47620	0.524398	-0.655894	0.355756	0.0178928	0.0230486	0.000111723	283138	549913	-2.30036e+06	
47649	0.52507	-0.660182	0.356993	0.0179268	0.0231145	-0.000164321	1.52588e+06	-9.73289e+06	2.80753e+06	
47679	0.52448	-0.653557	0.35557	0.0180641	0.0222386	8.83567e-05	-1.34095e+06	1.50591e+07	-3.23382e+06	
47709	0.52448	-0.653557	0.35557	0.0167366	0.0371471	-0.00311313	-1.34095e+06	1.50591e+07	-3.23382e+06	
47769	0.525135	-0.657073	0.355157	0.0420796	0.0104014	3.91877e-10	1.49299e+06	-8.01216e+06	-941368	
47800	0.523741	-0.663659	0.35535	0.0431098	0.00487299	-0.000649543	-3.18403e+06	-1.50346e+07	440747	
47829	0.51857	-0.671966	0.354359	0.0426322	0.0026178	-0.000583431	-1.43095e+07	-2.16294e+07	2.36336e+06	
47860	0.518667	-0.671817	0.353881	0.0374807	-0.00516878	0.000267377	221535	342005	-1.09334e+06	
47920	0.519268	-0.678848	0.352373	0.0396219	0.0196543	1.14078e-09	1.37837e+06	-1.61241e+07	-3.45889e+06	
47980	0.517943	-0.687843	0.349008	0.0373271	0.0181648	1.74876e-09	3.04964e+06	-1.53553e+07	-1.22207e+07	
48040	0.525383	-0.677027	0.344318	0.0388316	0.0262469	3.45048e-10	1.05419e+07	8.41081e+06	-1.0928e+07	
48069	0.525383	-0.677027	0.344318	0.0505331	0.0355829	-0.0121301	1.05419e+07	8.41081e+06	-1.0928e+07	
48100	0.527204	-0.692673	0.34567	0.057807	0.0413863	-0.0196704	4.20952e+06	-3.6164e+07	3.12512e+06	
48129	0.529314	-0.691624	0.338741	0.0600802	0.0218578	-0.0179828	4.8845e+06	2.42689e+06	-1.60383e+07	
48160	0.525387	-0.687191	0.338532	0.0633039	0.0234595	-0.0285681	-9.10005e+06	1.02729e+07	-484930	
48189	0.52868	-0.682397	0.33711	0.0567519	0.030856	-0.0289172	7.63979e+06	1.11206e+07	-3.29813e+06	
48220	0.52868	-0.682397	0.33711	0.0693576	0.049205	-0.0343591	7.63979e+06	1.11206e+07	-3.29813e+06	
48249	0.523059	-0.689556	0.335807	0.0741706	0.0562111	-0.0364369	-1.3075e+07	-1.66503e+07	-3.03084e+06	
48280	0.528126	-0.7035	0.33777	0.0667179	0.0467204	-0.0381645	1.18021e+07	-3.24771e+07	4.57233e+06	
48309	0.533882	-0.701184	0.335804	0.0748614	0.0243112	-0.0350096	1.34214e+07	5.39846e+06	-4.58413e+06	
48340	0.523496	-0.698308	0.349277	0.086538	0.0290079	-0.0389978	-2.42424e+07	6.71314e+06	3.1444e+07	
48369	0.527661	-0.696326	0.349948	0.0669016	0.0344455	-0.0135282	9.73484e+06	4.63225e+06	1.56928e+06	
48399	0.525043	-0.698547	0.349578	0.0736186	0.0376418	-0.0124454	-6.12618e+06	-5.19804e+06	-865976	
48429	0.528117	-0.693808	0.348637	0.0703105	0.0348348	-0.012913	7.20358e+06	1.1107e+07	-2.20461e+06	
48459	0.529216	-0.694142	0.348097	0.0737682	0.0401662	-0.0139712	2.57863e+06	-785271	-1.26784e+06	
48489	0.529216	-0.694142	0.348097	0.0773267	0.0390825	-0.0157208	2.57863e+06	-785271	-1.26784e+06	
48519	0.528756	-0.694279	0.344212	0.0794154	0.0384464	-0.0167478	-1.08229e+06	-322256	-9.13682e+06	
48549	0.526828	-0.698162	0.346571	0.0786037	0.0382047	-0.0236004	-4.53957e+06	-9.14263e+06	5.55449e+06	
48579	0.526413	-0.698624	0.345396	0.0749267	0.0307992	-0.0191013	-977394	-1.08892e+06	-2.76967e+06	
48609	0.528571	-0.710756	0.355508	0.0748094	0.0306685	-0.0194336	3.32604e+06	-1.88107e+07	1.85109e+07	
48669	0.528868	-0.704603	0.357108	0.0524372	0.0151927	1.34161e-10	701380	1.45526e+07	3.78291e+06	
48699	0.528868	-0.704603	0.357108	0.0538049	0.0435703	0.00737668	701380	1.45526e+07	3.78291e+06	
48730	0.535362	-0.709186	0.359997	0.0543099	0.0540482	0.0101004	1.54053e+07	-1.08727e+07	6.85402e+06	
48759	0.535362	-0.709186	0.359997	0.0788043	0.0367607	0.0209983	1.54053e+07	-1.08727e+07	6.85402e+06	
48790	0.535362	-0.709186	0.359997	0.117626	0.00936157	0.0382704	1.54053e+07	-1.08727e+07	6.85402e+06	
48819	0.541296	-0.708337	0.363674	0.125944	0.00349033	0.0419716	1.41317e+07	2.0238e+06	8.75608e+06	
48850	0.541296	-0.708337	0.363674	0.146718	0.00646531	0.054843	1.41317e+07	2.0238e+06	8.75608e+06	
48879	0.541296	-0.708337	0.363674	0.179786	0.011201	0.0753323	1.41317e+07	2.0238e+06	8.75608e+06	
48910	0.534945	-0.715257	0.363123	0.190385	0.0127188	0.0818993	-1.51771e+07	-1.65388e+07	-1.31707e+06	
48939	0.534945	-0.715257	0.363123	0.165798	-0.014074	0.0797657	-1.51771e+07	-1.65388e+07	-1.31707e+06	
48970	0.541579	-0.715055	0.361677	0.157147	-0.0235012	0.0790149	1.58965e+07	485381	-3.46272e+06	
48999	0.54118	-0.71599	0.365008	0.167639	-0.0231808	0.0767295	-956155	-2.24216e+06	7.98981e+06	
49030	0.539933	-0.717073	0.365805	0.167065	-0.0245261	0.0815234	-2.99503e+06	-2.60311e+06	1.9141e+06	
49059	0.543711	-0.710981	0.361097	0.165538	-0.0258537	0.0824996	9.08554e+06	1.46535e+07	-1.13244e+07	
49090	0.542409	-0.713728	0.359065	0.171534	-0.0161824	0.0750256	-3.13465e+06	-6.6145e+06	-4.89212e+06	
49119	0.542797	-0.711954	0.353975	0.169277	-0.0209449	0.0715032	936187	4.27508e+06	-1.2267e+07	
49209	0.545324	-0.716233	0.358436	0.0363305	0.00105811	6.82794e-10	-1.53546e+07	-13398.9	1.21152e+07	
49239	0.541927	-0.726292	0.363416	0.028039	0.00105088	0.00654223	-8.23061e+06	-2.43714e+07	1.20651e+07	
49269	0.535813	-0.739246	0.367247	0.0240883	-0.0106474	0.0123335	-1.48324e+07	-3.14235e+07	9.29317e+06	
49299	0.538903	-0.736246	0.366159	0.0156339	-0.0285588	0.0176306	7.50556e+06	7.28493e+06	-2.64216e+06	
49330	0.541534	-0.738904	0.367872	0.0169849	-0.0272475	0.017155	6.39945e+06	-6.46573e+06	4.1671e+06	
49359	0.561139	-0.7357	0.354463	0.0185208	-0.0287993	0.0181551	4.77488e+07	7.80235e+06	-3.26571e+07	
49390	0.562146	-0.735645	0.360627	0.0271156	-0.0273949	0.0122768	2.45606e+06	135028	1.50317e+07	
49450	0.565861	-0.7286	0.352715	0.0248124	0.00251143	5.00533e-10	9.07114e+06	1.72006e+07	-1.93177e+07	
49479	0.554228	-0.720245	0.35936	0.0318879	0.0159279	-0.0150678	-2.8451e+07	2.04328e+07	1.62514e+07	
49510	0.560187	-0.725114	0.36185	0.0259132	0.0202188	-0.011655	3.8109e+06	1.11418e+07	-8.30722e+06	
49539	0.55981	-0.729419	0.357874	0.0264848	0.02189	-0.0129011	-924784	-1.05625e+07	-9.75736e+06	
49570	0.558647	-0.727017	0.364781	0.0263738	0.0206225	-0.014072	-2.85653e+06	5.90057e+06	1.69691e+07	
49630	0.557513	-0.735269	0.367378	-0.0269783	0.024608	0.00578192	492627	-1.55252e+07	2.1588e+06	
49659	0.557513	-0.735269	0.367378	-0.026461	0.0083065	0.00804865	492627	-1.55252e+07	2.1588e+06	
49689	0.557034	-0.73562	0.369113	-0.0260472	-0.00473466	0.00986204	-1.18184e+06	-864187	4.2785e+06	
49719	0.557034	-0.73562	0.369113	-0.0281036	-0.00623835	0.0173066	-1.18184e+06	-864187	4.2785e+06	
49749	0.558446	-0.737708	0.368769	-0.0284227	-0.00647168	0.0184618	3.49517e+06	-5.16649e+06	-851155	
49779	0.558446	-0.737708	0.368769	-0.0243334	-0.0125165	0.017466	3.49517e+06	-5.16649e+06	-851155	
49809	0.558864	-0.737833	0.369198	-0.0220265	-0.0159264	0.0169042	1.03525e+06	-309341	1.06313e+06	
49839	0.556293	-0.736451	0.369128	-0.0216539	-0.0160377	0.0172869	-6.38185e+06	3.43088e+06	-174110	
49899	0.560524	-0.740969	0.368556	-0.0096245	0.0466396	8.12374e-10	1.05179e+07	-1.12323e+07	-1.42106e+06	
49930	0.56316	-0.74919	0.368528	-0.0026827	0.0392263	-0.000937902	6.56569e+06	-2.04758e+07	-69476.4	
49959	0.561962	-0.750207	0.368956	-0.00130391	0.0349264	-0.000952492	-2.98997e+06	-2.53856e+06	1.06705e+06	
50019	0.559302	-0.745127	0.365896	-0.0282258	0.0661184	1.3764e-10	-3.05922e+06	1.24135e+07	-8.33496e+06	
50049	0.558719	-0.743582	0.365919	-0.0296942	0.0720769	-0.00400078	-1.46061e+06	3.86613e+06	57060.5	
50079	0.558438	-0.74976	0.368316	-0.0306582	0.0746285	-0.00396312	-704053	-1.54794e+07	6.00656e+06	
50169	0.561706	-0.758085	0.365559	-0.0342828	0.0665431	1.35857e-10	-8.64995e+06	-1.9468e+06	6.18778e+06	
50199	0.561436	-0.75825	0.359205	-0.0355803	0.0662511	0.000928167	-680693	-416488	-1.60109e+07	
50229	0.560287	-0.768726	0.362451	-0.0357437	0.0661511	-0.00291445	-2.89835e+06	-2.64225e+07	8.18703e+06	
50259	0.55853	-0.770034	0.362425	-0.0363523	0.0606024	-0.00119517	-4.43568e+06	-3.30327e+06	-64028.7	
50289	0.55121	-0.777653	0.363246	-0.0364854	0.0605033	-0.00119709	-1.85105e+07	-1.92664e+07	2.07517e+06	
50319	0.55121	-0.777653	0.363246	-0.0537002	0.0425856	0.000732817	-1.85105e+07	-1.92664e+07	2.07517e+06	
50349	0.551462	-0.778027	0.363696	-0.0670277	0.0287138	0.00222694	636488	-948186	1.14083e+06	
50379	0.549243	-0.782016	0.363015	-0.066474	0.0278888	0.00321946	-5.6256e+06	-1.01115e+07	-1.72626e+06	
50409	0.550716	-0.78044	0.36232	-0.0700181	0.0215186	0.00213192	3.74100e+06	4.00099e+06	-1.76622e+06	
50439	0.545605	-0.787371	0.363425	-0.0685591	0.023079	0.00144309	-1.29956e+07	-1.76227e+07	2.81082e+06	
50469	0.542549	-0.788894	0.363824	-0.0744072	0.0151488	0.00270796	-7.78066e+06	-3.87883e+06	1.01434e+06	
50499	0.541493	-0.791468	0.362989	-0.0790755	0.0128215	0.00331656	-2.69184e+06	-6.55838e+06	-2.1265e+06	
50529	0.531136	-0.791695	0.365804	-0.0810137	0.00809942	0.00178548	-2.6416e+07	-577265	7.17964e+06	
50560	0.53363	-0.790091	0.364665	-0.103996	0.00759719	0.00803177	6.36704e+06	4.09329e+06	-2.90779e+06	
50589	0.519862	-0.808061	0.366768	-0.103232	0.00808839	0.00768284	-1.20463e+07	-1.56854e+07	1.51405e+06	
50620	0.521342	-0.80695	0.365625	-0.1054	0.00526502	0.00795537	3.79146e+06	2.84607e+06	-2.92951e+06	
50649	0.521342	-0.80695	0.365625	-0.101419	0.00825339	0.00487938	3.79146e+06	2.84607e+06	-2.92951e+06	
50679	0.521342	-0.80695	0.365625	-0.0940255	0.0138032	-0.000833176	3.79146e+06	2.84607e+06	-2.92951e+06	
50709	0.521604	-0.810985	0.366422	-0.0927744	0.0147424	-0.00179992	674324	-1.03729e+07	2.04924e+06	
50770	0.525539	-0.811705	0.364031	-0.0636427	0.0829205	2.95947e-10	194502	-1.30187e+07	-5.46411e+06	
50799	0.52129	-0.817401	0.365074	-0.0635377	0.0758904	-0.00295062	-1.0957e+07	-1.46902e+07	2.68866e+06	
