MS	x	y	z	vx	vy	vz	ax	ay	az	
8761	1.41586	0.935422	1.53854	-0.000751706	-0.0438554	4.10471e-11	-0.277135	0.685904	0.152026	
8941	1.41238	0.931344	1.5402	-0.00141721	-0.0448907	1.28124e-10	-0.275455	0.603269	0.251223	
9181	1.41638	0.934899	1.54209	-0.00224825	-0.0440439	6.43267e-11	-0.276336	0.603778	0.238247	
9361	1.40406	0.934989	1.5416	-0.0013185	-0.0427383	9.74726e-12	-0.274952	0.603925	0.162454	
10021	1.41244	0.938611	1.54259	-0.00180315	-0.0467348	5.60727e-11	-0.275488	0.603069	0.155758	
10081	1.41643	0.937847	1.53928	-0.00230459	-0.0460538	4.31026e-11	-0.276936	0.636041	0.239459	
10172	1.41439	0.936888	1.53774	-0.00075996	-0.0447227	7.63595e-11	-0.260911	0.602772	0.231392	
10232	1.41146	0.940808	1.53652	-0.00136461	-0.0453154	1.13768e-10	-0.20146	0.603685	0.237016	
10472	1.40538	0.934696	1.5279	-0.000457801	-0.0454344	4.73461e-11	-0.309114	0.611136	0.225458	
10591	1.40085	0.935071	1.52941	-0.000565186	-0.0459369	1.42811e-10	-0.245159	0.694071	0.340026	
10861	1.39999	0.934448	1.53273	-0.0020947	-0.044758	3.37039e-11	-0.276313	0.635292	0.160495	
11281	1.39854	0.93373	1.53235	-0.00296832	-0.0429765	1.43902e-11	-0.278743	0.66997	0.159892	
11341	1.40458	0.934014	1.53382	-0.00205128	-0.0433142	9.66219e-12	-0.276347	0.604799	0.161036	
11402	1.40099	0.934205	1.53337	-0.000860044	-0.0425607	4.34669e-11	-0.274692	0.606821	0.160988	
11491	1.40107	0.934362	1.53345	-0.00192966	-0.0437659	3.9702e-11	-0.277643	0.676292	0.220567	
11522	1.40107	0.934362	1.53345	-0.000821937	-0.0432805	1.07868e-11	-0.274946	0.602897	0.17978	
11762	1.40725	0.935364	1.53246	-0.00277939	-0.0439637	2.41935e-11	-0.27571	0.614003	0.16129	
12002	1.40721	0.934675	1.53357	-0.0018367	-0.0454569	9.75473e-12	-0.277484	0.596257	0.162579	
12151	1.40668	0.935454	1.53251	-0.00103417	-0.0447713	1.39566e-11	-0.277722	0.681805	0.155073	
12541	1.41047	0.936502	1.54774	-0.00170154	-0.0442389	6.67267e-11	-0.260952	0.603444	0.202202	
12691	1.41034	0.936072	1.54658	-0.00127235	-0.0443326	1.57999e-10	-0.275236	0.603389	0.239392	
13051	1.40754	0.934739	1.53238	-0.00100182	-0.0451816	1.07269e-10	-0.280619	0.603689	0.238376	
13141	1.41184	0.934567	1.53308	-0.00252441	-0.0451141	7.1454e-12	-0.257958	0.59818	0.23818	
13292	1.41118	0.934919	1.54878	0.000780011	-0.0429865	1.70083e-11	-0.275046	0.60218	0.188981	
13321	1.41118	0.934919	1.54878	-0.000418848	-0.0435012	1.17235e-10	-0.191628	0.637402	0.244239	
13442	1.41598	0.935811	1.54832	-0.000401214	-0.0442534	1.29955e-10	-0.246392	0.601741	0.206278	
13531	1.40771	0.935337	1.548	-0.00265654	-0.0465437	1.93428e-10	-0.202348	0.604031	0.247985	
13621	1.40464	0.935352	1.54746	-0.0019766	-0.0438767	6.71418e-11	-0.209702	0.643759	0.279758	
13801	1.41029	0.934671	1.54812	0.00157173	-0.036792	7.39889e-12	-0.242105	0.639199	0.24663	
13982	1.40952	0.935545	1.54788	-0.00236415	-0.041392	2.83988e-11	-0.274349	0.678129	0.236657	
14011	1.40952	0.935545	1.54788	-0.00413932	-0.0423077	1.35102e-10	-0.262342	0.665218	0.237021	
14101	1.4102	0.935105	1.54843	-0.00221847	-0.0441623	2.63438e-11	-0.286747	0.600553	0.146355	
14221	1.40879	0.936179	1.54818	-0.00102268	-0.039504	1.9966e-10	-0.277943	0.603866	0.237691	
14611	1.40825	0.933504	1.54953	-0.00066788	-0.0257992	3.59382e-11	-0.276585	0.602539	0.239588	
14792	1.41199	0.934993	1.54918	-0.000566045	-0.0218658	2.17871e-10	-0.0869116	0.678618	0.363119	
14912	1.4156	0.933367	1.55342	-0.000494382	-0.019098	9.22115e-11	-0.331762	0.442207	0.219551	
14941	1.4156	0.933367	1.55342	-0.000482143	-0.0186252	6.01603e-11	-0.175515	0.517525	0.250668	
14972	1.4156	0.933367	1.55342	-0.000465517	-0.017983	7.8753e-11	-0.175187	0.539173	0.238645	
15152	1.40808	0.933613	1.55168	-0.000396519	-0.0153179	1.34544e-10	-0.259711	0.47656	0.166104	
15181	1.40808	0.933613	1.55168	-0.000375243	-0.0144962	3.46614e-11	-0.352496	0.403055	0.231076	
15272	1.41256	0.933283	1.55248	-0.00034981	-0.0135138	1.08451e-10	-0.39919	0.530138	0.258217	
15301	1.41256	0.933283	1.55248	-0.000339447	-0.0131134	3.72578e-11	-0.360286	0.482121	0.177418	
15451	1.40758	0.931821	1.55109	-0.000296473	-0.0114534	1.39716e-10	-0.115252	0.531286	0.211691	
15511	1.41092	0.932228	1.55363	-0.000280566	-0.010839	6.55054e-11	-0.117007	0.515902	0.18196	
15661	1.40736	0.936615	1.55007	-0.000236596	-0.00914058	1.18647e-10	-0.147292	0.542476	0.247181	
15692	1.40736	0.936615	1.55007	-0.000233064	-0.00900417	1.35415e-10	-0.265452	0.534305	0.250768	
15721	1.40736	0.936615	1.55007	-0.000227296	-0.0087813	2.00888e-10	-0.284683	0.587285	0.334814	
15872	1.39977	0.931525	1.53328	-0.000191679	-0.00740529	2.22544e-10	-0.112319	0.633818	0.255798	
15932	1.39621	0.934701	1.53803	-0.000177793	-0.0068689	1.201e-11	-0.236107	0.526259	0.0800665	
16141	1.38881	0.920926	1.54167	-0.000144033	-0.00556494	3.15739e-11	-0.0952447	0.615431	0.0701642	
16442	1.38173	0.931336	1.54355	-0.000106627	-0.00411947	3.64052e-11	-0.172312	0.55311	0.0713828	
17192	1.29207	0.866733	1.2427	0.0222988	0.0102544	-1.07431e-09	-0.255384	0.575463	-1.98947	
17221	1.29207	0.866733	1.2427	0.115127	0.00455315	-2.51848e-10	-0.295343	0.525587	-2.09873	
17341	1.25988	0.833498	1.03974	0.0711445	0.0582044	-8.31334e-11	-0.119328	0.666738	-0.173195	
17461	1.21675	0.843898	0.863544	0.32758	0.377673	1.14814e-09	-0.201375	0.596798	2.73367	
17492	1.21675	0.843898	0.863544	0.381314	0.458032	1.21504e-09	0.05229	0.507902	2.7001	
17581	1.20231	0.866933	0.691299	0.220867	0.39093	3.32703e-10	-0.432163	0.630629	1.84835	
17882	1.15429	0.854877	0.357337	0.0956311	0.086498	1.43226e-09	-0.00708942	0.394325	4.77419	
17942	1.16484	0.86428	0.306885	-0.0935596	0.103198	-0.0116538	3.7647e+06	3.51323e+06	-5.7979e+06	
17971	1.16484	0.86428	0.306885	-0.0966161	0.106473	-0.016698	3.7647e+06	3.51323e+06	-5.7979e+06	
18271	1.12396	0.884709	0.33625	-0.0657644	-0.0445472	-6.76344e-10	-0.34521	0.598733	-0.980209	
18302	1.12396	0.884709	0.33625	-0.0650899	-0.0447686	-5.80018e-10	-0.317516	0.36539	-1.13729	
18391	1.10487	0.875216	0.40443	-0.0437133	-0.0139346	-4.75474e-10	-0.235908	0.536469	-1.76102	
18482	1.08956	0.857603	0.425165	-0.0510946	0.0257809	-4.8373e-10	-0.150736	0.545111	-1.24033	
18631	1.08982	0.867269	0.425885	-0.0126132	0.0459297	-3.06458e-11	-0.11602	0.396752	-0.145932	
18662	1.08982	0.867269	0.425885	-0.00706611	0.0574732	-1.73013e-12	-0.166428	0.572573	-0.00823873	
18751	1.07906	0.873748	0.421209	-0.00737839	0.0661352	1.24884e-10	-0.222107	0.555216	0.346899	
18811	1.09078	0.881313	0.423824	0.00267202	0.0568842	3.26458e-10	-0.107389	0.572961	0.680122	
18842	1.09078	0.881313	0.423824	-0.0075238	0.0600167	1.24924e-10	-0.289643	0.579858	0.520517	
18871	1.09078	0.881313	0.423824	-0.00759191	0.052234	1.56036e-10	-0.164285	0.520819	0.866867	
19172	1.09829	0.887653	0.408849	-0.0172919	0.0349181	1.12327e-10	-0.206415	0.507466	0.416027	
19201	1.09829	0.887653	0.408849	-0.0173764	0.0293615	2.04055e-10	-0.225119	0.443191	0.340091	
19232	1.09829	0.887653	0.408849	-0.0164027	0.0301956	6.3004e-11	-0.24533	0.547457	0.210013	
19592	1.11871	0.903512	0.424826	-0.0179107	0.0356288	2.51631e-11	-0.211678	0.447305	0.0559181	
19652	1.12264	0.903419	0.424363	-0.0102502	0.0338369	2.20951e-11	-0.191528	0.482558	0.0818335	
19741	1.1239	0.903998	0.423719	-0.0272951	0.0397541	2.40649e-10	-0.170881	0.540392	0.445646	
19951	1.12607	0.918777	0.428496	-0.0135294	0.0234673	1.2972e-10	-0.221717	0.432021	0.288268	
20222	1.12513	0.914818	0.427127	0.000140155	0.00171536	-0.000808812	591184	-104139	-210346	
20401	1.13122	0.930185	0.431491	-0.0150192	0.035277	1.1005e-10	-0.0476969	0.444414	0.146733	
20641	1.13795	0.931066	0.431457	-0.0102051	0.0136819	1.086e-10	-0.191856	0.514955	0.402221	
20672	1.13795	0.931066	0.431457	0.000712999	0.0161899	1.03e-10	-0.136173	0.47509	0.312121	
20731	1.13327	0.932591	0.43301	-0.0027686	0.012725	1.58495e-10	-0.162528	0.422977	0.310774	
21152	1.16678	0.941512	0.419512	-0.0619318	-0.0638147	1.48015e-10	-0.252974	0.540002	0.328922	
21181	1.16678	0.941512	0.419512	-0.0521801	-0.0628184	9.83936e-11	-0.13215	0.434322	0.364421	
21361	1.1819	0.955394	0.421171	-0.0586905	-0.0703758	2.70308e-10	-0.146016	0.353097	0.474224	
21691	1.22725	0.937869	0.428651	-0.0472416	-0.0438404	3.25297e-11	-0.185321	0.312349	0.0834094	
21842	1.23804	0.94147	0.462863	-0.0328968	-0.0356466	1.27075e-11	-0.212256	0.455556	0.105896	
22111	1.26315	0.92907	0.478441	-0.0339365	-0.0416043	2.13433e-11	-0.206039	0.436927	0.237148	
22141	1.26315	0.92907	0.478441	-0.0436303	-0.0445951	1.44958e-10	-0.0684934	0.518072	0.301996	
22292	1.27337	0.918804	0.489323	-0.0209767	-0.0545684	3.21559e-11	-0.157548	0.28807	0.178644	
22381	1.2916	0.927185	0.491957	-0.0389283	-0.0524625	1.36326e-10	-0.0281098	0.468088	0.216391	
22532	1.29995	0.919537	0.499964	-0.0547254	-0.0584581	8.56218e-11	-0.126931	0.511457	0.190271	
22741	1.31541	0.915296	0.520884	-0.0434843	-0.0628587	2.2364e-11	-0.142394	0.505617	0.0745467	
22772	1.31541	0.915296	0.520884	-0.0402637	-0.061672	3.13946e-11	-0.171231	0.417216	0.174414	
22861	1.32226	0.890405	0.533495	-0.0434537	-0.0660241	9.68534e-11	-0.0562647	0.458148	0.169918	
22981	1.33019	0.882029	0.526327	-0.0306995	-0.0588419	7.39208e-11	-0.111761	0.458024	0.246403	
23342	1.36462	0.884352	0.539445	-0.0245412	-0.0507069	1.71773e-10	-0.215385	0.529676	0.272656	
23402	1.35552	0.871041	0.542901	-0.0209408	-0.0461194	2.10453e-10	-0.158791	0.409028	0.250539	
23491	1.371	0.861541	0.549992	-0.017808	-0.0383686	2.54285e-11	-0.198082	0.552012	0.105952	
23522	1.371	0.861541	0.549992	-0.015959	-0.0316289	9.63029e-12	-0.177618	0.429596	0.0802525	
23551	1.371	0.861541	0.549992	-0.0107423	-0.0321472	1.35196e-11	-0.155285	0.532518	0.0375543	
23582	1.371	0.861541	0.549992	-0.0235809	-0.0288555	2.63758e-11	-0.20648	0.374824	0.109899	
23641	1.37335	0.858384	0.550961	-0.0234904	-0.0287449	1.5004e-10	-0.166056	0.475013	0.200054	
23792	1.38191	0.848427	0.550404	0.0109215	-0.0276261	8.45555e-11	-0.17949	0.627857	0.156584	
23852	1.37716	0.85193	0.549564	-0.0193344	-0.0220254	2.34271e-10	-0.196211	0.503805	0.278893	
24032	1.38594	0.850085	0.552324	-0.0182885	-0.0265001	9.84331e-11	-0.170448	0.360208	0.193006	
24242	1.40033	0.825266	0.551049	-0.019467	-0.0327292	3.85384e-11	-0.189393	0.44578	0.321154	
24511	1.4148	0.821802	0.553785	-0.00522709	-0.0239569	5.10055e-11	-0.243504	0.544207	0.106261	
24811	1.42423	0.803135	0.565968	0.0253919	0.000497227	-0.00633646	-270589	105552	-995098	
25112	1.42399	0.788592	0.56494	0.00490824	-0.0111191	4.10366e-11	-0.114805	0.582243	0.124353	
25141	1.42399	0.788592	0.56494	0.00399693	-0.0112564	7.49966e-11	-0.25195	0.288397	0.312486	
25172	1.42399	0.788592	0.56494	0.00552858	-0.0139882	1.25312e-11	-0.152116	0.594235	0.0522133	
25232	1.41612	0.784349	0.564042	0.010955	-0.00926655	2.45842e-10	-0.063678	0.393531	0.282577	
25291	1.41448	0.784325	0.565063	0.010593	-0.0112449	8.73937e-11	-0.233893	0.40509	0.291312	
25592	1.41945	0.77774	0.56341	0.00283247	-0.0161195	1.58805e-11	-0.139134	0.551783	0.0882251	
25682	1.42638	0.778938	0.563792	0.0127624	-0.0142957	2.45843e-11	-0.205597	0.527016	0.204869	
25771	1.40934	0.775517	0.563065	0.0025903	-0.0117603	1.61066e-10	-0.205218	0.608699	0.488079	
25802	1.40934	0.775517	0.563065	0.0025903	-0.0117603	6.14979e-10	-0.205218	0.608699	0.488079	
25891	1.4254	0.767298	0.565619	0.0110052	-0.0141505	4.72604e-11	-0.238642	0.488722	0.157535	
25951	1.42237	0.765232	0.565475	0.0116441	-0.0213148	2.39463e-11	-0.222868	0.442665	0.0798209	
26191	1.41312	0.745658	0.566219	0.0121887	-0.0274423	1.27119e-10	-0.204737	0.526784	0.169491	
26311	1.42032	0.740556	0.574244	0.00559883	-0.0310935	8.93803e-11	-0.174794	0.510118	0.148967	
26462	1.42733	0.736685	0.573375	0.00369806	-0.0267076	3.02673e-11	-0.263636	0.543591	0.126114	
26551	1.43218	0.726019	0.567444	-0.00608187	-0.0280823	1.06328e-10	-0.2588	0.477592	0.272635	
26611	1.42573	0.717213	0.558531	-0.00224036	-0.0268759	1.25508e-10	-0.148675	0.523055	0.298828	
26822	1.42644	0.714521	0.547998	-0.0116814	-0.0263465	1.1573e-10	-0.0965739	0.545243	0.226922	
26851	1.42644	0.714521	0.547998	-0.0116814	-0.0263465	3.13153e-10	-0.0965739	0.545243	0.226922	
26881	1.42644	0.714521	0.547998	-0.00855851	-0.02263	3.78004e-11	-0.127376	0.455476	0.157502	
26911	1.42644	0.714521	0.547998	-0.00855851	-0.02263	1.79552e-10	-0.127376	0.455476	0.157502	
27031	1.43189	0.702284	0.550273	-0.0155049	-0.0145674	1.00315e-10	-0.157873	0.481299	0.371537	
27151	1.44264	0.696136	0.554372	0.0144269	-0.0153571	0.00107861	-2.1424e+06	318971	283705	
27211	1.43303	0.689102	0.550612	-0.023061	-0.00272103	2.20054e-11	-0.160234	0.517472	0.244505	
27302	1.43572	0.690768	0.550977	-0.00367	-0.0219254	0.0015616	247406	1.39238e+06	340217	
27451	1.44299	0.673854	0.554698	-0.0210224	0.00329938	1.4775e-10	-0.165165	0.419276	0.492502	
27691	1.45499	0.660024	0.547824	-0.013771	-0.00326296	6.56058e-11	-0.0996528	0.534171	0.273357	
27722	1.45499	0.660024	0.547824	-0.0117433	5.86311e-05	6.7509e-12	-0.164244	0.44401	0.022503	
27751	1.45499	0.660024	0.547824	-0.0117433	5.8631e-05	2.63285e-11	-0.164244	0.44401	0.022503	
27782	1.45499	0.660024	0.547824	-0.00939247	-0.00276783	4.16384e-11	-0.212645	0.480111	0.231325	
27872	1.46206	0.660726	0.541404	-0.00996354	0.00304699	9.80282e-12	-0.226259	0.531335	0.0466801	
28141	1.45474	0.645378	0.52458	-0.00918565	0.0131182	1.2369e-10	-0.231363	0.408248	0.274868	
28382	1.4662	0.650688	0.518722	0.00531029	0.000335854	2.09046e-11	-0.173826	0.535633	0.174205	
28471	1.46705	0.657682	0.520292	-0.00671972	0.00514298	1.24237e-10	-0.225047	0.405494	0.159278	
28622	1.47325	0.651345	0.517351	0.00395339	0.00434279	2.96542e-11	-0.119415	0.287435	0.329491	
28711	1.47503	0.643337	0.518608	-0.00438478	0.00459726	5.63186e-11	-0.180439	0.617967	0.15644	
29012	1.47757	0.643693	0.520326	0.00422092	-0.000467089	5.19899e-11	-0.246947	0.518773	0.216625	
29192	1.47725	0.643814	0.52509	0.00987487	-0.000536842	1.47897e-10	-0.189657	0.460626	0.352136	
29492	1.4747	0.630699	0.518664	-0.00747025	-0.00128499	7.81856e-11	-0.331995	0.411048	0.325774	
29701	1.45968	0.620108	0.512591	-0.00301566	0.000751674	8.64355e-11	-0.181827	0.48895	0.411598	
29821	1.45918	0.626082	0.520295	-0.0149137	-0.00524494	0.015513	1.28251e+06	-2.09919e+06	195283	
30001	1.4577	0.624184	0.516122	-0.0118557	0.0110443	6.0637e-11	-0.213124	0.283962	0.288748	
30032	1.4577	0.624184	0.516122	0.00186496	0.00978643	1.55019e-10	-0.227601	0.423726	0.430609	
30332	1.4563	0.619904	0.514159	0.0047815	0.00595371	1.98176e-11	-0.246795	0.509409	0.0733983	
30422	1.45583	0.609286	0.523544	0.00709409	0.00773518	3.24035e-11	-0.234578	0.555323	0.135015	
30451	1.45583	0.609286	0.523544	0.0122548	0.00300448	1.40663e-11	-0.193371	0.51897	0.117219	
30841	1.46313	0.610393	0.519049	0.00629409	0.0135587	1.60315e-11	-0.295677	0.451738	0.267191	
30992	1.45474	0.608663	0.5182	6.25304e-05	0.00280673	1.49186e-10	-0.187042	0.472349	0.621608	
31021	1.45474	0.608663	0.5182	0.00118511	0.00889587	1.40828e-09	-0.251193	0.474751	2.47067	
31111	1.45294	0.60663	0.518214	-0.00669715	-0.00317302	0.000897253	-3.34863e+06	-1.47166e+06	1.33576e+06	
31172	1.45175	0.613825	0.519772	-0.0215059	-0.00415014	1.54176e-09	-0.0306635	0.338925	2.5696	
31291	1.44573	0.627002	0.581793	-0.00810075	-0.0123417	1.35225e-10	-0.0702759	0.334857	0.75125	
31411	1.43461	0.636876	0.740036	-0.00227352	-0.0119006	1.32459e-11	-0.0902027	0.539641	0.0883058	
31502	1.42196	0.65129	0.836563	-0.008505	-0.00326351	5.4493e-11	-0.230704	0.468922	0.100913	
31711	1.41866	0.653056	1.01022	-0.0223662	-0.0138191	-4.79615e-11	0.0272993	0.432905	-0.0639487	
31831	1.38286	0.645858	1.14905	-0.0242998	0.00386188	6.25165e-10	-0.282828	0.539894	1.09678	
31862	1.38286	0.645858	1.14905	-0.0205445	0.0192683	5.30821e-10	-0.176042	0.341894	1.4745	
31981	1.38654	0.649311	1.24525	-0.10271	0.136678	-1.57029e-09	0.603779	5.06669	-8.72382	
32072	1.33603	0.644823	1.35949	-0.0967375	0.128679	1.03463e-10	1.57793	0.833873	1.14959	
32281	1.32724	0.64291	1.30017	-0.0795469	0.105837	1.2035e-10	-0.20743	0.532352	0.167153	
32312	1.32724	0.64291	1.30017	-0.0760381	0.101169	5.61083e-11	-0.216681	0.485479	0.0984355	
32431	1.33691	0.646942	1.35064	-0.0246166	0.0227207	1.17465e-10	-0.251218	0.549311	0.186453	
32491	1.34822	0.653547	1.35066	-0.0152902	0.0158859	1.32965e-10	-0.251322	0.460034	0.158292	
32522	1.34822	0.653547	1.35066	-0.00595168	0.00732111	9.13724e-11	-0.226722	0.507521	0.20305	
32642	1.3284	0.643226	1.38999	-0.00291089	0.00346808	1.37004e-10	-0.201063	0.54621	0.175646	
32701	1.32902	0.644941	1.38924	-0.00437568	0.00330601	7.59848e-11	-0.285568	0.604389	0.230257	
32791	1.32978	0.639897	1.3962	0.000898959	-0.000129505	3.4762e-11	-0.267131	0.692069	0.231747	
32822	1.32978	0.639897	1.3962	0.00127097	0.000348168	3.60072e-11	-0.277828	0.604668	0.240048	
32911	1.32882	0.63925	1.39618	0.00207217	-0.000695606	2.20354e-11	-0.275356	0.603046	0.244838	
33151	1.33525	0.639443	1.43425	0.00262456	-0.000139484	5.87875e-11	-0.274594	0.603979	0.244948	
33662	1.34841	0.636601	1.45129	0.00192017	-5.33976e-05	1.01359e-10	-0.276433	0.614068	0.160888	
33691	1.34841	0.636601	1.45129	0.00151485	-0.000658144	3.4061e-11	-0.274635	0.535426	0.162195	
33722	1.34841	0.636601	1.45129	0.00186773	0.00027181	1.94755e-11	-0.276277	0.602836	0.162296	
33782	1.34511	0.637606	1.46468	0.00260442	-0.000129317	9.50195e-11	-0.305017	0.602105	0.175962	
33842	1.34601	0.63574	1.46478	0.00231122	-0.000266527	1.55765e-10	-0.211706	0.60434	0.273272	
33902	1.34871	0.63696	1.46502	0.00134421	0.000552658	1.06838e-10	-0.234312	0.639053	0.237418	
33931	1.34871	0.63696	1.46502	0.00201583	0.000403937	3.64099e-11	-0.280501	0.610922	0.303416	
33962	1.34871	0.63696	1.46502	0.00195557	0.000569266	6.36051e-11	-0.275316	0.606056	0.235574	
34022	1.34653	0.634243	1.45909	0.00206606	0.000349292	7.17687e-11	-0.275949	0.603503	0.239229	
34322	1.3481	0.619919	1.48122	0.00154986	-0.000820389	1.92956e-11	-0.311507	0.602172	0.160797	
34471	1.35358	0.620063	1.47968	0.000999435	-0.000347061	1.78517e-10	-0.288296	0.602838	0.238022	
34682	1.35561	0.615595	1.47692	0.00307831	-0.00110787	1.10236e-10	-0.308652	0.601922	0.159762	
34862	1.35473	0.620936	1.47322	0.0017943	-6.06619e-05	2.89753e-11	-0.276196	0.602294	0.160974	
34982	1.34989	0.623776	1.47691	0.00156146	-0.000110145	1.01019e-10	-0.276078	0.602959	0.210455	
35101	1.34817	0.619642	1.47344	0.00199101	-0.00089816	3.57105e-11	-0.276287	0.60313	0.23807	
35131	1.34817	0.619642	1.47344	0.00231942	-0.00121395	1.56568e-11	-0.276332	0.601691	0.173965	
35281	1.35523	0.622199	1.46877	0.00168585	-0.000786736	1.49617e-10	-0.242087	0.603719	0.311702	
35312	1.35523	0.622199	1.46877	0.001721	-0.00114991	1.04115e-10	-0.277234	0.603009	0.315501	
35461	1.35705	0.625714	1.4781	0.00180893	-0.000687958	6.60804e-11	-0.276295	0.602759	0.244742	
35701	1.35141	0.626117	1.48091	0.00215275	-0.00160656	8.81309e-11	-0.276887	0.602566	0.172806	
35732	1.35141	0.626117	1.48091	0.00271723	-0.000945198	2.87661e-11	-0.276566	0.602647	0.239718	
35761	1.35141	0.626117	1.48091	0.00213656	-0.00125384	1.01734e-10	-0.275961	0.603498	0.242223	
35881	1.35526	0.627026	1.48016	0.00124899	-0.00134344	3.36648e-11	-0.282272	0.601722	0.160308	
35912	1.35526	0.627026	1.48016	0.00215102	-0.000187678	1.06609e-11	-0.274694	0.602131	0.177682	
35941	1.35526	0.627026	1.48016	0.00188835	0.000285016	8.39176e-11	-0.275383	0.603531	0.215173	
36122	1.34854	0.627545	1.48103	0.00169867	-0.00104781	8.2938e-11	-0.274624	0.602237	0.184307	
36211	1.34952	0.625551	1.48201	0.0022564	-0.000588999	1.00029e-10	-0.276154	0.603186	0.238165	
36242	1.34952	0.625551	1.48201	0.0015956	0.000358528	6.69058e-11	-0.275744	0.603541	0.223019	
36451	1.35606	0.625339	1.48566	0.00116084	-0.000502767	1.02729e-10	-0.272548	0.603603	0.171215	
36962	1.35224	0.625209	1.485	0.0012325	-0.000967297	1.63992e-10	-0.275695	0.603005	0.227767	
37231	1.36065	0.638818	1.50002	0.00170974	-0.000117444	1.4051e-11	-0.276565	0.602063	0.156122	
37261	1.36065	0.638818	1.50002	0.00185857	0.000126663	4.83137e-11	-0.291182	0.60213	0.161046	
37291	1.36065	0.638818	1.50002	0.00108026	-8.25532e-05	6.39367e-11	-0.283825	0.60192	0.193747	
37442	1.3476	0.626209	1.48782	0.00202246	2.95414e-05	1.53668e-10	-0.271276	0.604281	0.269593	
37562	1.35021	0.626254	1.4875	0.00148988	9.85043e-05	1.83396e-10	-0.275473	0.603231	0.226415	
37651	1.35144	0.626265	1.48728	0.00196122	0.000891383	9.56905e-11	-0.275251	0.602969	0.24536	
37682	1.35144	0.626265	1.48728	0.00213878	0.000854842	5.02863e-11	-0.260933	0.603286	0.239459	
37951	1.35109	0.635352	1.47231	0.001426	-9.77521e-05	4.8472e-11	-0.268505	0.602523	0.179526	
38251	1.34265	0.61523	1.48055	0.00128345	-0.000301499	4.28181e-11	-0.275255	0.604034	0.237878	
38641	1.34985	0.627286	1.46124	0.00164183	-0.00102529	1.459e-11	-0.276557	0.601638	0.243166	
38761	1.34465	0.623854	1.4556	0.00196809	-0.000279273	1.09035e-10	-0.275658	0.602436	0.242299	
38791	1.34465	0.623854	1.4556	0.00204237	-0.000818975	5.59875e-11	-0.276884	0.603317	0.207361	
38822	1.34465	0.623854	1.4556	0.00193093	-0.000869885	3.62881e-11	-0.274752	0.602653	0.1728	
38912	1.34244	0.621892	1.45952	-0.000132092	-0.00355109	0.000104899	-3.96758e+06	-888184	-135984	
38941	1.34244	0.621892	1.45952	0.00178501	-0.000338848	3.69551e-11	-0.276231	0.603108	0.175977	
39182	1.34238	0.623709	1.46016	0.00194073	-0.00101471	7.91322e-11	-0.27521	0.602587	0.164859	
39212	1.34238	0.623709	1.46016	0.00117568	-0.00130275	8.77099e-11	-0.276885	0.602896	0.162426	
39272	1.3441	0.619401	1.46336	0.000623067	-0.000805565	9.6731e-11	-0.259493	0.602863	0.161218	
39421	1.34381	0.623101	1.46227	0.00226642	-0.00111877	1.09938e-10	-0.282174	0.604745	0.244307	
39691	1.34634	0.620955	1.45744	0.00218261	-6.56819e-05	9.66506e-11	-0.276443	0.603538	0.161084	
39722	1.34634	0.620955	1.45744	0.00240802	0.000617654	3.38095e-11	-0.275407	0.601569	0.160998	
39871	1.34389	0.623013	1.4614	0.00127673	0.000273709	1.35697e-10	-0.276035	0.602231	0.238065	
39962	1.3446	0.621278	1.45931	0.00142133	0.000585575	1.28374e-10	-0.27956	0.619079	0.23773	
40201	1.34203	0.619094	1.45544	0.00188524	-2.35879e-05	1.49833e-10	-0.308727	0.601787	0.23783	
40292	1.3488	0.621412	1.45417	0.00164161	0.00107551	1.69453e-10	-0.276082	0.602784	0.182208	
40412	1.34115	0.622031	1.45263	0.00149769	0.000296008	7.02455e-11	-0.278152	0.60264	0.234152	
40472	1.34151	0.621014	1.45347	0.00173045	0.000883346	9.46158e-11	-0.276003	0.602214	0.157693	
40532	1.34295	0.622654	1.45486	0.00215503	-0.00121155	1.93393e-11	-0.275161	0.601794	0.161161	
40592	1.33805	0.624376	1.45777	0.00201947	-0.00127286	2.41655e-11	-0.270236	0.60256	0.161104	
40682	1.34215	0.621045	1.45767	0.000872939	-0.000401291	4.05479e-11	-0.272514	0.602493	0.168949	
40742	1.34369	0.61977	1.45956	0.000845664	0.000489881	8.6631e-11	-0.322526	0.601354	0.160428	
40831	1.34441	0.620688	1.45979	0.00208044	0.000563291	3.86591e-11	-0.276428	0.602047	0.16108	
41101	1.33959	0.615012	1.46016	0.00150797	0.00147154	1.64701e-10	-0.304185	0.568395	0.238697	
41312	1.34917	0.616902	1.46558	0.00185965	-0.000751853	9.59495e-11	-0.263933	0.60287	0.228451	
41462	1.3444	0.618443	1.46362	0.00119329	-0.00020078	1.40514e-10	-0.276355	0.602744	0.223039	
41852	1.33964	0.616352	1.46052	0.00158794	-0.000485638	6.90697e-11	-0.275955	0.601965	0.164452	
41942	1.34278	0.618894	1.45825	0.00223666	-0.000532194	8.05992e-11	-0.276386	0.602649	0.149258	
42092	1.34643	0.623769	1.46021	0.000830092	-6.95817e-05	9.64205e-11	-0.294396	0.600661	0.160701	
42482	1.33946	0.618341	1.45573	0.00184457	0.000736455	1.20443e-10	-0.351868	0.606302	0.160591	
42661	1.33854	0.618886	1.46001	0.000426428	0.000313915	7.73182e-11	-0.272442	0.603068	0.16108	
42691	1.33854	0.618886	1.46001	0.00223584	0.000646647	6.9975e-11	-0.27599	0.602427	0.194375	
43081	1.34361	0.616286	1.46437	0.00264247	-3.15804e-05	8.23045e-11	-0.276771	0.602124	0.161381	
43112	1.34361	0.616286	1.46437	0.00256466	-0.000533675	1.93485e-11	-0.275699	0.601503	0.161238	
43202	1.34411	0.618258	1.46344	0.000335767	-0.000314394	1.11198e-10	-0.263447	0.602217	0.161156	
43261	1.34381	0.615168	1.4599	0.00164386	0.000219029	5.31719e-11	-0.264205	0.601763	0.161127	
43292	1.34381	0.615168	1.4599	0.00186376	-0.000654751	8.21408e-11	-0.277727	0.603251	0.16106	
43321	1.34381	0.615168	1.4599	0.00169109	0.000606382	3.38337e-11	-0.269776	0.601989	0.161113	
43441	1.34275	0.617476	1.45871	0.00183322	-0.00102582	1.20784e-10	-0.276438	0.602219	0.161046	
43501	1.34609	0.61775	1.45934	0.0022514	-0.00205541	4.83239e-11	-0.276301	0.602087	0.16108	
43591	1.34647	0.619769	1.4617	0.00227957	2.15524e-05	2.89934e-11	-0.276518	0.602124	0.161074	
43651	1.34006	0.618701	1.46116	0.00199544	-0.000704804	4.83223e-11	-0.276475	0.60224	0.161074	
43711	1.3463	0.618209	1.46045	0.000639706	1.95555e-05	3.85671e-11	-0.342324	0.600766	0.160696	
43802	1.34428	0.61993	1.4627	0.00147268	-0.000214494	4.82636e-11	-0.311594	0.601793	0.160879	
43922	1.34148	0.619413	1.46132	0.00239228	0.00110616	1.35299e-10	-0.274936	0.602317	0.16107	
44191	1.33795	0.618873	1.46305	0.00196546	-0.000515532	6.58122e-11	-0.275503	0.6023	0.219374	
44311	1.34143	0.618623	1.46204	0.000969981	-8.21293e-06	1.39251e-11	-0.276501	0.610428	0.154723	
44432	1.34326	0.617383	1.46202	0.00689695	-0.00294819	-0.000225717	-846147	-5.68502e+06	979556	
44491	1.34388	0.616618	1.46084	0.00137198	0.000240056	1.10889e-10	-0.27466	0.602254	0.231019	
44611	1.33403	0.618009	1.45847	0.00205311	-0.000382532	1.99903e-11	-0.27418	0.588903	0.222114	
44701	1.33553	0.620543	1.45796	0.00174694	-1.0346e-05	8.2245e-11	-0.275645	0.602432	0.195821	
44792	1.34107	0.619767	1.45958	0.00146644	3.99633e-05	6.27089e-11	-0.275263	0.601466	0.160792	
44911	1.33745	0.617762	1.45621	0.00212968	-0.000921375	1.28079e-10	-0.276262	0.603022	0.237184	
44971	1.33907	0.618759	1.46054	0.00109724	-0.00104037	5.93681e-11	-0.275466	0.602074	0.164911	
45001	1.33907	0.618759	1.46054	0.00140135	-0.000612018	3.42138e-11	-0.276596	0.604113	0.228092	
45181	1.34324	0.619029	1.45705	0.0013064	-0.000285807	7.16449e-11	-0.280575	0.601511	0.170583	
45331	1.34894	0.622098	1.45687	0.00225705	-0.000848326	1.0126e-10	-0.276262	0.603531	0.16073	
45451	1.34835	0.622089	1.45638	0.00163248	-0.000714289	2.00045e-11	-0.274761	0.603978	0.222272	
45571	1.34194	0.620631	1.46281	0.00164283	-0.000559961	1.93399e-11	-0.275959	0.601603	0.161166	
45871	1.34688	0.61971	1.46049	0.00168654	-7.11983e-05	5.31563e-11	-0.27486	0.602939	0.16108	
45902	1.34688	0.61971	1.46049	0.00168654	-7.11985e-05	2.0296e-10	-0.27486	0.602939	0.16108	
46022	1.34656	0.615831	1.45894	0.000564663	-0.000571411	1.01211e-10	-0.347272	0.604724	0.160653	
46051	1.34656	0.615831	1.45894	0.0017665	-0.00126456	7.71987e-11	-0.31151	0.601535	0.160831	
46082	1.34656	0.615831	1.45894	0.00243468	7.06167e-06	6.76795e-11	-0.263509	0.602586	0.161142	
46172	1.34178	0.618864	1.46037	0.00266515	0.000138388	5.79765e-11	-0.276281	0.601891	0.161046	
46201	1.34178	0.618864	1.46037	0.00206051	5.6474e-06	9.18098e-11	-0.276469	0.601948	0.16107	
46351	1.34321	0.617202	1.46028	0.000423451	6.77309e-05	5.75323e-11	-0.263853	0.602596	0.239718	
46382	1.34321	0.617202	1.46028	0.00042345	6.77307e-05	2.8047e-10	-0.263853	0.602596	0.239718	
46441	1.34104	0.617632	1.46096	0.00179018	-0.00037696	6.61313e-11	-0.275663	0.602896	0.220438	
46501	1.34377	0.618922	1.46347	0.0021127	-0.000797548	8.19898e-11	-0.275741	0.602748	0.21023	
46591	1.34079	0.621913	1.46019	0.00150045	-6.21463e-05	7.23759e-11	-0.275461	0.601006	0.160835	
46622	1.34079	0.621913	1.46019	0.00178939	0.000408448	3.38116e-11	-0.276079	0.602591	0.161008	
46651	1.34079	0.621913	1.46019	0.00108073	0.000172389	9.91091e-11	-0.277135	0.603095	0.194332	
46682	1.34079	0.621913	1.46019	0.00205886	0.000185078	6.49599e-11	-0.276748	0.636873	0.166564	
46742	1.34544	0.620337	1.45999	0.00190875	-0.000527794	1.40781e-10	-0.275722	0.604085	0.195529	
46891	1.34244	0.621008	1.46037	0.00125798	-0.000924679	1.46742e-11	-0.275568	0.605088	0.24457	
46952	1.34062	0.621883	1.45956	0.00283625	0.000176986	4.90136e-11	-0.275986	0.602605	0.163379	
47101	1.34903	0.61623	1.46611	0.00267384	-0.000346316	5.63573e-11	-0.275905	0.602987	0.156548	
47341	1.34346	0.621953	1.46254	0.0016848	-0.00105999	1.82331e-10	-0.277046	0.602539	0.21706	
47371	1.34346	0.621953	1.46254	0.0016848	-0.00105999	3.77685e-10	-0.277046	0.602539	0.21706	
47701	1.34436	0.620169	1.45953	0.00130474	0.000667034	3.86452e-11	-0.275548	0.602276	0.161022	
47791	1.34374	0.616574	1.45505	0.00229683	4.98041e-05	4.82118e-12	-0.341687	0.601488	0.160706	
47882	1.34391	0.619375	1.45608	0.00253552	-0.000217068	8.77822e-11	-0.290385	0.602394	0.16256	
47971	1.34108	0.620585	1.45966	0.00124156	-0.000758456	5.86646e-11	-0.277982	0.603092	0.244436	
48031	1.34189	0.621372	1.46073	0.000719321	-0.00115769	1.67481e-10	-0.277802	0.60329	0.242726	
48062	1.34189	0.621372	1.46073	0.00172446	-0.000233386	5.72241e-11	-0.260732	0.602952	0.238434	
48181	1.34172	0.623028	1.45859	0.00238544	-0.000288029	2.05024e-10	-0.282307	0.60305	0.244076	
48212	1.34172	0.623028	1.45859	0.00142547	-0.00168994	1.21946e-10	-0.272115	0.602944	0.239109	
48361	1.34284	0.620238	1.45859	0.0012224	-0.000192715	8.34791e-11	-0.275076	0.603376	0.252967	
48601	1.34752	0.618009	1.4588	0.00189738	-0.000653966	3.54589e-11	-0.274643	0.603576	0.236393	
48961	1.34139	0.624417	1.46104	0.0018067	-4.72137e-05	3.57148e-11	-0.277659	0.603083	0.238099	
48991	1.34139	0.624417	1.46104	0.00108302	-0.000101187	4.28473e-11	-0.275406	0.603178	0.238041	
49202	1.34392	0.622108	1.46008	0.00240779	0.000117051	1.44905e-10	-0.275862	0.603221	0.230008	
49231	1.34392	0.622108	1.46008	0.00181396	-0.000209342	1.07217e-10	-0.275744	0.603327	0.223369	
49261	1.34392	0.622108	1.46008	0.00184444	-0.000373472	5.36952e-11	-0.276638	0.602262	0.162713	
49381	1.34436	0.620056	1.46426	0.00122517	0.000362767	1.16435e-10	-0.273486	0.647102	0.242572	
49441	1.34481	0.618657	1.46342	0.00104988	-0.000495889	2.86224e-11	-0.277599	0.602763	0.23852	
49502	1.34415	0.619748	1.46227	0.00162522	-0.000146794	1.00128e-10	-0.277398	0.602	0.16688	
49921	1.34689	0.618772	1.45695	0.0018043	1.9929e-05	1.85415e-10	-0.209021	0.612861	0.309025	
49981	1.34082	0.620362	1.45571	0.00155808	-0.000362545	5.0388e-11	-0.207865	0.604422	0.239943	
50012	1.34082	0.620362	1.45571	0.00133545	-0.00132899	1.0576e-10	-0.204215	0.674411	0.271179	
50071	1.34171	0.621319	1.45915	0.00205115	8.87592e-06	1.52118e-10	-0.201541	0.675417	0.211275	
50281	1.34264	0.618439	1.459	0.00142995	-0.000656187	1.19983e-10	-0.275967	0.602993	0.159977	
50341	1.34182	0.617338	1.4579	0.00148169	-0.000646803	8.9814e-11	-0.260272	0.60358	0.176106	
50461	1.3434	0.617252	1.45832	0.000988836	-0.000353287	2.76776e-11	-0.282858	0.601218	0.184517	
50731	1.33853	0.618958	1.45934	0.00217948	0.000531091	2.90236e-11	-0.244399	0.603273	0.161242	
50851	1.34174	0.617239	1.45804	0.000921736	-0.000144886	5.0914e-11	-0.279112	0.601814	0.242448	
51781	1.34341	0.620394	1.46029	0.00244951	-0.00115653	4.10858e-11	-0.275697	0.601766	0.15217	
51812	1.34341	0.620394	1.46029	0.00176083	-0.000985758	3.8759e-11	-0.276393	0.603237	0.161496	
52052	1.33611	0.623335	1.46321	0.00265153	-0.000427642	8.60706e-11	-0.273921	0.603706	0.239085	
52172	1.33978	0.622269	1.4612	0.00213373	-0.00023353	1.01368e-10	-0.268485	0.602162	0.160902	
52381	1.34316	0.615578	1.46151	0.00234463	0.000927289	1.1826e-10	-0.2755	0.601592	0.1971	
52441	1.34599	0.617653	1.45954	-0.013561	0.0195247	-0.0119571	7.73878e+06	5.69088e+06	-5.38606e+06	
52712	1.34288	0.615706	1.46096	0.00138244	-0.000173246	1.70332e-10	-0.277345	0.657225	0.22711	
52742	1.34288	0.615706	1.46096	0.00138244	-0.000173247	3.74731e-10	-0.277345	0.657225	0.22711	
52801	1.34463	0.618199	1.46224	0.000631803	-0.000552324	1.75264e-10	-0.246181	0.603541	0.254006	
52892	1.34874	0.618568	1.45797	0.001791	-6.22749e-05	5.97496e-11	-0.267415	0.603333	0.221295	
52982	1.34715	0.619498	1.45935	0.00224499	0.000141921	1.28617e-10	-0.275338	0.602101	0.23818	
53011	1.34715	0.619498	1.45935	0.00105876	0.00124985	2.45061e-11	-0.276972	0.601983	0.163374	
53311	1.342	0.618598	1.46155	0.001356	-0.000259941	4.8912e-11	-0.275876	0.602456	0.148218	
53371	1.34363	0.616516	1.464	0.00109821	-0.0017014	6.73676e-11	-0.26211	0.601905	0.160399	
53582	1.34625	0.618479	1.46014	0.00262283	-0.000316877	8.2148e-11	-0.275584	0.602735	0.161074	
53641	1.34547	0.620254	1.4571	0.00177589	-0.000413248	8.83823e-11	-0.276625	0.602858	0.173299	
53672	1.34547	0.620254	1.4571	0.00235985	-0.00117286	5.13002e-11	-0.274722	0.602547	0.213751	
54001	1.34869	0.617325	1.4559	0.00106031	-0.000350849	2.88917e-11	-0.276686	0.635433	0.16051	
54091	1.34558	0.615955	1.45885	0.00109433	-0.000402898	4.75241e-11	-0.276428	0.604375	0.226305	
54151	1.34769	0.615552	1.45922	0.00112182	0.000162656	7.84768e-11	-0.301743	0.601327	0.163493	
54211	1.34952	0.617164	1.45951	-0.00610624	0.0176907	0.00392359	8.62961e+06	3.09562e+06	2.04354e+06	
54242	1.34952	0.617164	1.45951	0.00204855	-0.00125533	4.09214e-11	-0.276471	0.601836	0.194864	
54271	1.34952	0.617164	1.45951	0.00204855	-0.00125533	2.10453e-10	-0.276471	0.601836	0.194864	
54692	1.35133	0.621325	1.45951	0.00150711	-0.000302972	7.64433e-11	-0.261499	0.677066	0.231646	
54751	1.34895	0.620109	1.45982	0.00163161	0.000192947	9.08522e-11	-0.196083	0.59883	0.232954	
54811	1.34611	0.621926	1.45863	0.00178188	-0.000112653	3.65628e-11	-0.27161	0.603007	0.174108	
55052	1.3467	0.621512	1.46038	0.000858054	-0.000525245	2.40671e-11	-0.276512	0.636757	0.160447	
55141	1.34462	0.623008	1.45976	0.00259864	-6.02468e-05	6.69894e-11	-0.274984	0.602695	0.159499	
55201	1.34447	0.623226	1.45918	-0.0140264	-5.72524e-05	0.0118031	-1.92456e+06	1.02077e+07	8.553e+06	
55261	1.34558	0.622247	1.45832	0.00174096	0.000567341	8.69543e-11	-0.275187	0.602343	0.161026	
55321	1.34426	0.619948	1.4613	0.0015714	0.000141391	1.08757e-10	-0.275354	0.604865	0.258945	
55621	1.34081	0.617695	1.46037	0.00220439	2.59473e-06	4.80494e-11	-0.276901	0.606405	0.160165	
55681	1.34213	0.617897	1.46143	-0.0011483	0.00966755	0.00597001	4.07823e+06	626068	3.2623e+06	
55772	1.34306	0.617981	1.46387	0.00189727	-0.000151216	1.59127e-10	-0.275835	0.603295	0.196454	
55801	1.34306	0.617981	1.46387	0.000569989	-0.00035658	4.01719e-11	-0.275084	0.601961	0.167383	
56042	1.34636	0.614698	1.46101	0.00140079	-0.000437414	5.31704e-11	-0.307678	0.601319	0.161122	
56161	1.3452	0.616636	1.46148	0.00204551	-0.000436359	1.15967e-10	-0.275929	0.602269	0.161065	
56611	1.34767	0.615943	1.45849	0.00240561	-0.000452601	8.57257e-11	-0.276859	0.602018	0.158751	
56911	1.34456	0.620864	1.4737	0.00209671	0.00053259	3.66855e-11	-0.276355	0.602522	0.24457	
57541	1.3463	0.610672	1.46175	0.00132176	0.000772624	5.66916e-11	-0.283997	0.60196	0.188972	
58112	1.34625	0.616142	1.46339	0.00087815	-0.000264929	7.81229e-11	-0.346167	0.600296	0.162756	
58171	1.34396	0.613344	1.46266	0.00134506	-0.000102445	9.15205e-11	-0.272521	0.60295	0.160562	
58262	1.34292	0.614216	1.4627	0.00234182	-0.000507334	2.9115e-11	-0.275783	0.601941	0.16175	
58621	1.33871	0.614598	1.45692	0.00187404	0.000991703	1.40273e-10	-0.278138	0.592315	0.161233	
58651	1.33871	0.614598	1.45692	0.00160475	0.000264879	1.45032e-11	-0.274272	0.597192	0.161146	
58741	1.34088	0.613351	1.45781	0.00162699	4.56254e-06	1.30167e-11	-0.277068	0.602359	0.14463	
58951	1.34342	0.614615	1.45666	0.00188535	0.000698815	9.66362e-11	-0.276585	0.601856	0.16106	
59401	1.35259	0.615417	1.47877	0.00226865	-0.000153314	1.33386e-11	-0.275959	0.602564	0.222311	
59641	1.3439	0.61575	1.46055	0.00176027	0.000168786	2.21764e-11	-0.274239	0.60911	0.246405	
59672	1.3439	0.61575	1.46055	0.00216754	-0.000432831	1.75562e-10	-0.276093	0.605028	0.254438	
59732	1.34341	0.616898	1.46002	0.00245171	-0.000388205	9.42264e-11	-0.281521	0.600965	0.314088	
59791	1.34413	0.614502	1.4593	0.00208471	-8.28175e-05	9.95849e-11	-0.211246	0.604394	0.237107	
59821	1.34413	0.614502	1.4593	0.00127233	-0.000173664	8.59224e-11	-0.204708	0.603495	0.238673	
59882	1.34979	0.620933	1.46463	0.00167534	0.00131965	4.28422e-11	-0.277373	0.601669	0.238012	
60182	1.34366	0.617166	1.45953	0.00202716	-0.000202841	1.01206e-10	-0.285858	0.602806	0.224902	
60451	1.34295	0.616256	1.46451	0.000818181	-0.00137296	3.829e-11	-0.273287	0.600363	0.159542	
60602	1.34734	0.616802	1.46445	0.00228025	-0.00031694	2.04479e-10	-0.275019	0.602368	0.235033	
60662	1.34736	0.61628	1.46497	0.00119753	-0.000175877	3.46452e-11	-0.2761	0.603721	0.28871	
60991	1.34173	0.61353	1.45846	0.00234711	-0.000279552	6.3032e-11	-0.275484	0.602572	0.161621	
61022	1.34173	0.61353	1.45846	0.00198806	0.000317347	2.48129e-11	-0.276387	0.602468	0.165419	
61201	1.35052	0.618461	1.46858	0.00138789	-0.000312975	1.42888e-11	-0.204083	0.620874	0.238147	
61292	1.35531	0.616313	1.4687	0.00200425	-0.000214345	9.22252e-11	-0.250222	0.701817	0.236475	
61652	1.35302	0.615332	1.46508	0.00100536	0.000133003	6.55979e-11	-0.277779	0.692778	0.242955	
62041	1.34492	0.617114	1.46113	0.0011131	0.000900959	6.56356e-11	-0.274487	0.603717	0.218785	
62521	1.33758	0.613496	1.45093	0.00123453	-0.00136563	7.61933e-11	-0.275836	0.612301	0.211648	
62582	1.33671	0.616458	1.45362	0.00140819	-0.000262154	7.91384e-11	-0.276065	0.606321	0.155173	
62672	1.33649	0.614	1.45467	0.00169273	0.000606587	1.32029e-10	-0.277147	0.599016	0.176039	
62761	1.33946	0.613986	1.45688	0.00196341	0.000535745	6.1134e-11	-0.282228	0.602234	0.169817	
62792	1.33946	0.613986	1.45688	0.00234589	0.000897123	5.24037e-11	-0.281898	0.602418	0.249542	
62821	1.33946	0.613986	1.45688	0.0028985	0.000363853	2.19708e-11	-0.276405	0.603664	0.18309	
62852	1.33946	0.613986	1.45688	0.00171153	0.000552059	4.65319e-11	-0.276594	0.602567	0.155106	
62881	1.33946	0.613986	1.45688	0.0018097	-0.000216813	3.86452e-11	-0.276368	0.602151	0.161022	
63301	1.33158	0.613153	1.44752	0.00227437	-0.000812047	3.00014e-11	-0.276317	0.60216	0.166674	
63722	1.33502	0.606171	1.4546	0.00127058	-0.000189855	1.18838e-10	-0.274648	0.602748	0.141474	
63751	1.33502	0.606171	1.4546	0.0019683	8.32631e-06	5.80731e-11	-0.276098	0.60199	0.161314	
63841	1.33408	0.608333	1.45605	0.00191842	-0.000817613	2.99473e-11	-0.259927	0.603677	0.249561	
64021	1.33363	0.610206	1.45065	0.00206669	-0.000739417	1.57938e-10	-0.275329	0.602348	0.210585	
64081	1.33306	0.609971	1.44403	0.00130917	0.000808355	1.48778e-10	-0.273328	0.602596	0.171009	
64562	1.33603	0.606269	1.4506	0.00547995	-0.0140973	0.0226867	2.03947e+07	4.86136e+06	-4.83403e+06	
64621	1.33778	0.606582	1.45033	0.0013411	-0.000656409	1.997e-11	-0.280961	0.602795	0.221889	
64711	1.33052	0.602952	1.44998	0.000813211	-0.000350669	5.33614e-11	-0.276229	0.602959	0.222339	
64802	1.33269	0.605711	1.45112	0.0023243	0.000706083	1.1025e-10	-0.274838	0.602149	0.245001	
65012	1.33119	0.603813	1.45288	0.00194606	-0.000675191	1.13848e-10	-0.267106	0.603336	0.252996	
65162	1.33485	0.604701	1.44886	0.00127308	0.000363926	8.09251e-11	-0.274464	0.603775	0.299722	
65251	1.33292	0.603451	1.4489	0.00132584	0.00036867	5.48755e-11	-0.275702	0.602108	0.228648	
65581	1.333	0.603563	1.45688	0.00143623	-8.35635e-05	6.28323e-11	-0.300143	0.602433	0.161108	
65612	1.333	0.603563	1.45688	0.0021516	0.000465673	4.34216e-11	-0.30553	0.601924	0.160821	
65971	1.33449	0.610267	1.45269	0.00144957	0.00014362	5.25776e-11	-0.283315	0.602914	0.159326	
66002	1.33449	0.610267	1.45269	0.00181872	0.000184754	4.356e-11	-0.275138	0.601956	0.161333	
66031	1.33449	0.610267	1.45269	0.00181872	0.000184754	1.8392e-10	-0.275138	0.601956	0.161333	
66451	1.33483	0.61085	1.44787	0.00158264	-0.000234733	4.22183e-11	-0.276938	0.602993	0.175909	
66481	1.33483	0.61085	1.44787	0.00169837	0.00073576	1.98491e-11	-0.275237	0.60165	0.16541	
66631	1.33115	0.610282	1.44539	-0.00507591	-0.0114874	-0.0121477	-1.16976e+07	-626832	-1.1546e+07	
66662	1.33115	0.610282	1.44539	0.00147388	-0.000545768	8.07935e-11	-0.275458	0.602767	0.244829	
66782	1.33258	0.609352	1.44716	0.00177872	-0.000392057	2.90228e-11	-0.276739	0.602622	0.161238	
66902	1.33374	0.607943	1.44721	0.00161045	0.000343289	3.87878e-11	-0.275629	0.602153	0.161616	
66991	1.33062	0.605216	1.44658	0.00206172	0.000280411	1.20361e-10	-0.276048	0.601413	0.167168	
67081	1.33367	0.607107	1.44673	0.00781583	-0.00745108	-0.00128151	-1.95737e+06	-1.66589e+06	-263684	
67262	1.33214	0.606139	1.44681	0.00136496	-0.000447065	1.14143e-10	-0.234693	0.645939	0.237797	
67321	1.33081	0.605319	1.44675	0.00168845	-0.000129007	7.30906e-11	-0.257857	0.586251	0.221487	
67351	1.33081	0.605319	1.44675	0.00195731	0.000174742	3.06014e-11	-0.269798	0.602827	0.170008	
67561	1.33694	0.613508	1.45173	0.00167547	0.000342796	2.95022e-11	-0.276439	0.602022	0.163901	
67651	1.33802	0.612594	1.45392	0.00164146	-0.0015524	4.06732e-11	-0.280441	0.644495	0.169472	
67981	1.33353	0.609533	1.45362	0.000821337	9.5233e-05	7.84967e-11	-0.284746	0.601868	0.237869	
68072	1.33499	0.610494	1.45362	0.0019721	9.53784e-05	6.57464e-11	-0.275944	0.601887	0.16858	
68461	1.33213	0.609307	1.45169	0.00118967	-0.000271223	2.14099e-11	-0.276542	0.603229	0.237888	
68492	1.33213	0.609307	1.45169	0.00118967	-0.000271223	2.42645e-10	-0.276542	0.603229	0.237888	
68911	1.32583	0.604411	1.44738	0.0014499	5.93581e-05	8.89485e-11	-0.273894	0.591036	0.228073	
69062	1.3288	0.607174	1.44502	0.00160387	-0.000472605	5.78542e-11	-0.274187	0.602339	0.160706	
69211	1.32869	0.607241	1.44473	0.00129866	-0.000213018	4.47873e-11	-0.275204	0.599468	0.149291	
69542	1.3272	0.607449	1.4459	0.000638824	0.00120185	4.25628e-11	-0.276631	0.602982	0.23646	
69602	1.32539	0.606365	1.44557	0.00177929	-0.000191929	3.92546e-11	-0.276374	0.602337	0.163561	
69631	1.32539	0.606365	1.44557	0.00249137	0.000912841	2.07524e-11	-0.275323	0.602788	0.230583	
69871	1.32664	0.607028	1.44551	0.00225286	-0.000583539	9.91631e-11	-0.276636	0.624482	0.20659	
70592	1.33608	0.614781	1.44913	0.00155119	-0.000171053	1.14717e-10	-0.275794	0.602781	0.238994	
70652	1.33551	0.614396	1.4491	0.000896617	-0.000300239	8.94832e-11	-0.24155	0.6198	0.248565	
70712	1.33576	0.614649	1.44912	0.00235722	0.00022124	8.59896e-11	-0.195533	0.599739	0.23886	
71281	1.33719	0.61506	1.45356	0.00211985	-1.94822e-05	1.42764e-10	-0.274158	0.607259	0.23794	
71401	1.3379	0.613638	1.45241	0.00263609	-0.000578136	7.78078e-11	-0.277938	0.602621	0.172906	
71432	1.3379	0.613638	1.45241	0.00126526	-0.000228665	1.24657e-10	-0.277632	0.602193	0.230846	
71461	1.3379	0.613638	1.45241	0.00126526	-0.000228666	3.25493e-10	-0.277632	0.602193	0.230846	
71492	1.3379	0.613638	1.45241	0.000348811	0.000208776	1.42529e-11	-0.276369	0.602464	0.237548	
71641	1.33144	0.613109	1.45043	0.00158984	-0.00011511	7.17127e-12	-0.275525	0.603372	0.239042	
71761	1.32725	0.610615	1.45015	0.00155339	-0.00101245	1.8569e-10	-0.275782	0.603235	0.238065	
72332	1.32894	0.612288	1.45154	0.00208099	0.000531092	5.74437e-11	-0.276576	0.602061	0.239349	
72361	1.32894	0.612288	1.45154	0.000460423	-1.13008e-05	4.09318e-11	-0.275259	0.603506	0.170549	
72482	1.33922	0.619888	1.45452	0.00176123	-0.000164387	8.51482e-11	-0.276594	0.666714	0.236523	
72542	1.33673	0.618282	1.45418	0.00171158	-0.000407957	3.5681e-11	-0.275722	0.606129	0.237874	
72902	1.33954	0.620348	1.45486	-0.00156852	0.00966549	0.00224259	5.5879e+06	3.52973e+06	672306	
73171	1.33505	0.620084	1.45438	0.0014467	-4.31979e-05	3.05005e-11	-0.277195	0.685691	0.203337	
73261	1.33412	0.618556	1.45407	0.00151085	-0.000470863	1.00299e-10	-0.275192	0.602656	0.238807	
73321	1.33754	0.621002	1.45454	0.00199076	-3.72318e-05	1.01605e-10	-0.275199	0.602586	0.225788	
73382	1.33835	0.621542	1.45467	0.00060128	0.000180324	2.00249e-10	-0.276559	0.602113	0.230171	
73531	1.33506	0.619475	1.45454	0.00648114	-0.00943792	0.00031692	-1.5582e+07	-8.92148e+06	-1.1116e+06	
73681	1.33577	0.619821	1.45454	0.00140355	-0.000715196	1.66925e-10	-0.205158	0.604435	0.241921	
73712	1.33577	0.619821	1.45454	0.00197751	0.000480073	5.6539e-11	-0.283322	0.601828	0.235579	
73801	1.33385	0.618698	1.45434	0.00161736	0.000154938	4.30277e-11	-0.274708	0.591316	0.204894	
73891	1.33552	0.619641	1.45446	0.00192801	0.000956716	2.07271e-10	-0.276139	0.610744	0.238242	
74221	1.33319	0.618318	1.45435	0.00183026	-0.000301341	1.21403e-10	-0.274966	0.603564	0.238046	
74311	1.3338	0.618449	1.45445	0.0018522	0.00139808	1.28444e-10	-0.275389	0.61213	0.237859	
74612	1.34157	0.62222	1.46076	0.00101414	0.000388396	1.78725e-10	-0.222138	0.60338	0.2383	
74641	1.34157	0.62222	1.46076	0.00109042	-0.000832862	9.99933e-11	-0.263573	0.603467	0.238079	
74822	1.34097	0.621914	1.46018	0.00166829	-0.000124622	8.56843e-11	-0.275572	0.601856	0.238012	
74851	1.34097	0.621914	1.46018	0.00162042	-0.00052981	5.56387e-11	-0.276337	0.605274	0.231828	
75361	1.34479	0.624216	1.46031	0.00299058	0.000507491	7.1807e-11	-0.274424	0.603869	0.217597	
75391	1.34479	0.624216	1.46031	0.00299058	0.000507491	2.67644e-10	-0.274424	0.603869	0.217597	
75511	1.34251	0.622628	1.46016	0.00160701	-0.000526031	7.85725e-11	-0.243251	0.604665	0.238099	
76291	1.33671	0.618981	1.4591	0.000898569	-0.00123358	4.80429e-11	-0.21379	0.62065	0.320286	
76891	1.33071	0.612256	1.45664	0.00143525	-0.000671307	7.14094e-11	-0.275236	0.602981	0.238031	
76951	1.33617	0.615404	1.45703	0.00184525	-0.000781236	4.28543e-11	-0.261039	0.603706	0.238079	
77071	1.33916	0.617388	1.4573	0.00188742	-6.63524e-05	1.06268e-10	-0.212475	0.585125	0.25302	
77162	1.33595	0.61643	1.45793	0.00046521	-0.000815573	4.33267e-11	-0.27526	0.60623	0.240704	
77492	1.33633	0.617681	1.4583	0.00196708	0.000584336	5.04779e-11	-0.27585	0.618146	0.186955	
77911	1.33954	0.621888	1.46217	0.00191068	0.000448974	9.64142e-11	-0.275553	0.602325	0.229558	
78181	1.34022	0.62271	1.46188	0.00151933	0.000464791	9.99611e-11	-0.275924	0.604369	0.238003	
78302	1.34039	0.622882	1.46201	0.00187037	0.000709882	1.55808e-10	-0.276612	0.603085	0.236073	
78391	1.34311	0.624475	1.46211	0.00225469	-0.000778454	1.15719e-10	-0.275515	0.603399	0.226899	
78481	1.34305	0.624359	1.46217	0.00176956	-0.000342146	1.37013e-11	-0.272921	0.60172	0.152237	
78601	1.34495	0.625628	1.4622	0.00115195	-0.000777393	6.74582e-11	-0.276443	0.603022	0.160615	
78632	1.34495	0.625628	1.4622	0.00176098	-0.000470914	7.30289e-11	-0.276235	0.602442	0.24343	
78901	1.34231	0.623943	1.46193	0.00144766	-0.000346955	5.53898e-11	-0.275481	0.600764	0.167848	
79021	1.34199	0.623754	1.46204	0.00192866	-0.00012434	3.87475e-11	-0.275507	0.602188	0.161448	
79142	1.3422	0.623913	1.4622	0.00158737	-0.000691243	6.27276e-11	-0.276233	0.603176	0.16084	
79171	1.3422	0.623913	1.4622	0.00154862	-0.000123019	1.59405e-11	-0.276234	0.60139	0.177116	
79592	1.34073	0.624432	1.46521	0.0017099	0.000657826	1.13085e-10	-0.27595	0.603348	0.2513	
79651	1.34106	0.622575	1.46375	0.00119703	0.000223433	1.00017e-10	-0.275505	0.603442	0.238137	
79682	1.34106	0.622575	1.46375	0.000890913	0.000158079	5.00188e-11	-0.260228	0.603384	0.238185	
79711	1.34106	0.622575	1.46375	0.00132769	9.98792e-05	5.63351e-11	-0.268307	0.60202	0.170712	
79831	1.34013	0.620844	1.46374	0.00133242	-0.000223689	1.004e-10	-0.261353	0.602706	0.239047	
80101	1.33664	0.619357	1.46312	0.00180309	0.000690494	7.25036e-11	-0.203771	0.605543	0.302098	
80222	1.3367	0.61945	1.46308	0.000672246	0.000184849	1.23454e-10	-0.243498	0.598964	0.164605	
80251	1.3367	0.61945	1.46308	0.00145854	-0.000122664	3.36446e-11	-0.288174	0.589042	0.160213	
80282	1.3367	0.61945	1.46308	0.00145854	-0.000122664	1.82642e-10	-0.288174	0.589042	0.160213	
80371	1.33648	0.619282	1.46313	0.00112537	0.000174971	9.33858e-11	-0.276159	0.602225	0.155643	
80402	1.33648	0.619282	1.46313	0.00123817	0.000629668	1.15273e-10	-0.276622	0.601958	0.167062	
80462	1.33758	0.619946	1.46319	0.0018479	-0.0008212	5.49514e-11	-0.281795	0.603469	0.228964	
80582	1.33589	0.618921	1.46323	0.00176547	-0.000451533	9.97637e-11	-0.248866	0.688605	0.221697	
80702	1.33604	0.618925	1.46311	0.00235415	-0.00035709	1.28379e-10	-0.278253	0.682555	0.237739	
80971	1.33976	0.621268	1.46367	0.00108999	0.000516785	9.73719e-11	-0.275123	0.602481	0.162287	
81151	1.34108	0.622249	1.46376	0.00139896	-0.000486537	3.93569e-11	-0.275858	0.636903	0.163987	
81362	1.33763	0.621837	1.46496	0.00180374	1.58416e-05	4.8265e-11	-0.275805	0.603633	0.160883	
81422	1.33615	0.620857	1.46476	0.00241855	-0.000772945	5.82254e-11	-0.276152	0.602649	0.242606	
81721	1.33864	0.622999	1.46613	0.00227061	-0.000321067	7.05717e-11	-0.260388	0.602964	0.196033	
81961	1.33973	0.622679	1.46687	0.00021356	0.000856067	2.85638e-11	-0.276621	0.602346	0.238031	
82202	1.34336	0.625598	1.4681	0.00119245	0.000185241	8.73486e-11	-0.276099	0.602176	0.242635	
82321	1.34445	0.626241	1.46798	0.0015506	-0.000123276	1.04487e-10	-0.276316	0.602958	0.232192	
82561	1.34244	0.625009	1.46782	0.00102516	8.26625e-05	4.16627e-11	-0.276137	0.602341	0.154306	
82592	1.34244	0.625009	1.46782	0.00195641	-0.00152615	2.39672e-11	-0.276327	0.601794	0.159782	
82951	1.33712	0.619321	1.464	0.00187951	-0.000717281	1.20932e-10	-0.274753	0.602263	0.237122	
83191	1.33786	0.619867	1.46408	0.00152596	-6.94041e-05	1.11132e-10	-0.291908	0.60285	0.16106	
83312	1.34179	0.622526	1.46449	0.00117537	-0.000154994	1.53616e-10	-0.276208	0.603923	0.256027	
83341	1.34179	0.622526	1.46449	0.00128265	-0.000483929	4.64801e-11	-0.275557	0.601741	0.154934	
83551	1.34333	0.623341	1.46481	0.00142709	8.47794e-05	7.25848e-11	-0.233916	0.603503	0.1613	
83642	1.3406	0.621712	1.46415	0.00134886	9.24516e-05	6.3662e-11	-0.278405	0.595526	0.151576	
83671	1.3406	0.621712	1.46415	0.00165372	0.000520274	8.09951e-11	-0.290382	0.602209	0.158814	
83731	1.34075	0.621025	1.46122	0.00123939	-0.000451337	8.79331e-11	-0.276577	0.603341	0.244259	
83762	1.34075	0.621025	1.46122	0.000689989	-0.00149171	1.82439e-10	-0.278154	0.602738	0.243252	
83822	1.34122	0.620553	1.4612	0.00154026	-0.000404856	6.57583e-11	-0.276191	0.602036	0.243549	
83941	1.3401	0.619932	1.46094	0.00213886	-0.000207961	2.02334e-11	-0.276915	0.606031	0.224816	
83972	1.3401	0.619932	1.46094	0.000956975	-0.000388836	4.63935e-11	-0.275718	0.604178	0.220921	
84032	1.33687	0.617512	1.46041	0.00111825	-0.000730963	5.32638e-11	-0.275272	0.60322	0.161405	
84181	1.33774	0.618026	1.46048	0.00149958	0.000495268	4.6927e-11	-0.276162	0.601399	0.195529	
84631	1.33797	0.618433	1.46096	0.00114508	0.000511334	5.99401e-11	-0.197887	0.676509	0.285429	
84751	1.33697	0.617761	1.46069	0.0010523	-0.000243404	3.97409e-11	-0.201357	0.614703	0.220783	
84811	1.3362	0.617303	1.4605	0.00142803	-0.000109925	1.07556e-10	-0.202842	0.661616	0.239013	
84962	1.33612	0.617174	1.46077	0.00274524	-0.000742076	6.54081e-11	-0.26968	0.60155	0.155734	
85022	1.33559	0.616423	1.46084	0.00236219	-0.000278032	6.20569e-11	-0.275816	0.602121	0.15912	
85531	1.33793	0.618667	1.46077	0.00251602	0.000602828	2.80329e-11	-0.275964	0.602369	0.155738	
85771	1.33469	0.615891	1.46058	0.000921609	-0.00037746	1.93077e-11	-0.275155	0.602466	0.160897	
85862	1.33708	0.617982	1.46155	0.00134171	-0.000562216	6.76454e-11	-0.275968	0.603068	0.16106	
85952	1.33876	0.618499	1.46158	0.00137288	-0.000571066	1.06357e-10	-0.261845	0.602675	0.161146	
85981	1.33876	0.618499	1.46158	0.000395347	-0.000328241	7.31539e-11	-0.288118	0.602284	0.221678	
86041	1.34216	0.614758	1.4598	0.00260044	0.000302463	5.81903e-11	-0.277243	0.603065	0.16164	
86101	1.34224	0.620276	1.46062	0.0018058	0.00114578	3.38357e-11	-0.276292	0.602658	0.161122	
86221	1.33808	0.617664	1.46071	0.0015378	-0.000232933	1.06316e-10	-0.275578	0.602906	0.161084	
86341	1.33914	0.618115	1.46088	0.00176597	-6.31962e-05	7.68314e-11	-0.275997	0.602717	0.21342	
86432	1.33841	0.617751	1.46081	0.00181273	-0.000511746	5.31167e-11	-0.275482	0.602231	0.16096	
86942	1.3394	0.618376	1.46081	0.00271141	-0.00082411	4.30402e-11	-0.277503	0.603343	0.159408	
87002	1.33862	0.617992	1.46078	0.00169186	-0.00140513	3.86901e-11	-0.277016	0.600092	0.161209	
87091	1.33838	0.617639	1.46083	0.000859047	-0.000297193	9.63373e-11	-0.275974	0.632143	0.160562	
87301	1.33749	0.616872	1.46059	0.00179003	0.000338163	1.20813e-10	-0.275367	0.601009	0.161084	
87361	1.33907	0.618106	1.4608	0.00172922	-0.000408987	8.74471e-11	-0.283221	0.602616	0.194327	
87391	1.33907	0.618106	1.4608	0.000655932	0.000535128	2.00676e-11	-0.276289	0.602719	0.16723	
87422	1.33907	0.618106	1.4608	0.00115828	-0.000629622	8.14543e-11	-0.275416	0.602958	0.159714	
87451	1.33907	0.618106	1.4608	0.00253648	0.000307063	6.29798e-11	-0.276297	0.601432	0.161487	
87481	1.33907	0.618106	1.4608	0.0023455	0.000229152	3.37784e-11	-0.276243	0.60257	0.160849	
87512	1.33907	0.618106	1.4608	0.00180636	-0.000786361	3.86751e-11	-0.275037	0.603313	0.161146	
87692	1.33786	0.617591	1.46081	0.00173094	0.000622228	6.28211e-11	-0.275155	0.601236	0.16108	
87721	1.33786	0.617591	1.46081	0.00195287	0.000691435	1.44941e-11	-0.276177	0.603064	0.161046	
88442	1.33582	0.616187	1.46011	0.000533111	8.33311e-05	2.05228e-11	-0.276109	0.603389	0.171023	
88502	1.33624	0.616525	1.46009	0.00112556	0.000562435	3.35873e-11	-0.293818	0.602325	0.159939	
88651	1.33573	0.616024	1.46032	0.00151112	0.000150159	1.16965e-10	-0.276062	0.61444	0.229342	
88831	1.33576	0.616185	1.46024	0.00150748	-0.000121262	2.4162e-11	-0.273775	0.602792	0.16108	
88862	1.33576	0.616185	1.46024	0.00178695	-0.000654008	4.15507e-11	-0.255129	0.652891	0.230837	
88921	1.33289	0.613495	1.45896	0.00250318	-0.000791844	3.43497e-11	-0.276753	0.601975	0.16357	
89131	1.33541	0.615635	1.46024	0.00146016	-0.00142598	2.41576e-11	-0.275762	0.60204	0.16105	
89581	1.3368	0.620824	1.46309	0.00191124	-0.000304756	4.83411e-11	-0.257772	0.602607	0.161137	
89911	1.33564	0.623252	1.46527	0.00102449	4.27788e-05	2.41612e-11	-0.27588	0.602401	0.161074	
89971	1.33497	0.622856	1.46519	0.00116535	0.000275482	1.93272e-11	-0.276594	0.60213	0.16106	
90091	1.33982	0.623001	1.46496	0.00151965	0.000443453	4.60462e-11	-0.276593	0.60228	0.139534	
90302	1.33708	0.623181	1.46465	0.00128485	0.000266547	4.88298e-11	-0.288753	0.594362	0.147969	
90421	1.33415	0.618777	1.46068	0.00160652	0.000116399	7.29671e-11	-0.19541	0.637707	0.243224	
90751	1.32992	0.615983	1.45841	0.00143162	-0.000929935	1.44808e-11	-0.275615	0.602898	0.160897	
91921	1.32971	0.616852	1.45926	0.00157193	-0.000181994	1.44648e-11	-0.283342	0.620114	0.16072	
92041	1.32979	0.617019	1.45927	0.00279127	-0.000336421	4.58607e-11	-0.270324	0.600259	0.169855	
92341	1.33286	0.617471	1.45574	0.00210849	0.000145613	4.34061e-11	-0.27518	0.61699	0.160763	
92852	1.34057	0.624477	1.45492	0.00201804	-0.00012968	9.09742e-11	-0.286043	0.686023	0.159604	
92971	1.33907	0.623412	1.45473	-0.00331342	0.0113177	-0.00181839	2.41999e+06	827025	-543313	
93031	1.33838	0.623001	1.45472	0.000707144	0.000809553	3.62465e-11	-0.276683	0.604424	0.241643	
93212	1.33652	0.622129	1.45467	0.00125604	0.000500411	6.99353e-11	-0.278982	0.679351	0.145699	
93631	1.33716	0.622455	1.45467	0.00142956	-0.000544688	6.2012e-11	-0.275542	0.601094	0.159005	
94382	1.33903	0.623621	1.45479	0.00145632	-0.00072244	8.69777e-11	-0.275606	0.600725	0.16107	
94801	1.33845	0.623305	1.45477	0.00165231	-0.00132318	3.38558e-11	-0.275546	0.603432	0.161218	
94891	1.33971	0.62396	1.45491	0.00176832	-0.00111182	4.56913e-12	-0.27628	0.603357	0.152304	
95071	1.33944	0.623729	1.455	0.00266506	0.00042678	6.73978e-11	-0.275508	0.637	0.160471	
95401	1.33891	0.623438	1.45472	0.00145828	0.000993529	1.00003e-10	-0.271386	0.603357	0.238103	
95462	1.33795	0.622766	1.45462	0.000583322	-0.000224968	7.74423e-11	-0.266759	0.669134	0.161338	
95522	1.33665	0.622144	1.45442	0.00176457	-0.000415665	1.12307e-10	-0.274652	0.607867	0.249571	
95821	1.33772	0.622783	1.45465	0.0016097	-0.00092116	5.3131e-11	-0.285971	0.602107	0.161003	
95851	1.33772	0.622783	1.45465	0.00211206	0.000103636	6.76373e-11	-0.281519	0.6025	0.161041	
95942	1.33744	0.622775	1.45454	0.00238256	-0.000241119	3.69661e-11	-0.275045	0.602387	0.176029	
96331	1.33859	0.623225	1.45464	0.0019764	-0.000279787	2.89228e-11	-0.282884	0.623582	0.160682	
96392	1.3384	0.623142	1.45453	0.00167506	-0.000240723	1.56085e-10	-0.275117	0.596193	0.167833	
96512	1.33712	0.622538	1.45458	0.00149333	-2.12944e-05	1.92962e-11	-0.275368	0.620743	0.160801	
96992	1.3355	0.621452	1.45445	0.00126359	-0.000724989	9.15723e-12	-0.295946	0.601568	0.152621	
97441	1.33839	0.622957	1.45477	0.00192718	-0.000318701	1.11006e-10	-0.276904	0.621494	0.160879	
97831	1.3375	0.622492	1.45461	0.00196974	0.000672394	5.25176e-11	-0.276887	0.668747	0.159144	
98522	1.33719	0.622337	1.45453	0.00175169	0.000604934	7.81396e-11	-0.275428	0.602749	0.173644	
98852	1.3404	0.623802	1.45474	0.0016294	-0.000668476	6.50218e-11	-0.276468	0.601676	0.154814	
99241	1.33606	0.621664	1.45442	0.00113436	0.000330494	8.431e-11	-0.27625	0.607483	0.234194	
99272	1.33606	0.621664	1.45442	0.00159697	0.000254214	7.21557e-11	-0.275738	0.600575	0.171799	
99361	1.33498	0.620958	1.45436	0.00158386	-0.000231781	1.33162e-10	-0.276192	0.603509	0.158526	
99722	1.33497	0.620745	1.45584	0.00175412	-0.000485979	5.76593e-11	-0.342251	0.600828	0.160165	
99932	1.33178	0.618893	1.45544	0.00131145	-0.000584293	1.36612e-10	-0.27592	0.591514	0.23967	
100322	1.33251	0.6162	1.45172	0.000679556	-0.000167245	8.60931e-11	-0.275879	0.60262	0.239148	
100382	1.33158	0.615673	1.45162	0.00181304	-0.000235209	3.72773e-11	-0.276729	0.614054	0.155322	
100471	1.33779	0.619375	1.45161	0.0019149	-0.000307135	8.61811e-11	-0.276221	0.674311	0.239392	
100921	1.34242	0.620442	1.44781	0.000924505	8.15615e-05	2.18104e-11	-0.275679	0.603508	0.242338	
101101	1.33718	0.617523	1.44766	0.00206224	0.000857008	6.15495e-11	-0.275697	0.602781	0.170971	
101161	1.33738	0.617643	1.44773	0.00178246	8.96444e-06	1.26062e-10	-0.268713	0.604055	0.247181	
101552	1.33644	0.617087	1.44752	0.00214304	-0.00106937	6.22807e-11	-0.275089	0.603624	0.230669	
101581	1.33644	0.617087	1.44752	0.00256566	-5.36367e-05	8.4779e-11	-0.275023	0.603057	0.235497	
102092	1.33465	0.615964	1.4476	0.00177967	0.00111835	5.68999e-11	-0.261568	0.686683	0.237083	
102301	1.33723	0.617146	1.44764	0.00104878	-0.00127439	1.32935e-10	-0.276674	0.602679	0.177246	
102542	1.33199	0.614289	1.44725	0.00117566	-0.000246253	1.28691e-10	-0.276398	0.595775	0.164988	
102661	1.33667	0.61709	1.44769	0.00268095	-0.000241459	7.89075e-11	-0.275369	0.603237	0.239114	
102692	1.33667	0.61709	1.44769	0.00148948	-0.000452779	1.21535e-10	-0.276379	0.602435	0.238304	
102721	1.33667	0.61709	1.44769	0.00211628	-0.000289976	5.11907e-11	-0.276968	0.603238	0.170636	
102812	1.33739	0.617175	1.44783	0.00129358	-0.000420862	1.41879e-11	-0.276812	0.653443	0.236465	
102901	1.33374	0.615515	1.44716	0.000987307	-0.000793854	1.64248e-10	-0.275705	0.603187	0.238041	
102932	1.33374	0.615515	1.44716	0.00211546	-0.00017004	9.00268e-11	-0.275806	0.596595	0.21435	
102992	1.33792	0.617905	1.44777	0.00238391	4.69946e-05	7.76004e-11	-0.276169	0.602915	0.235153	
103081	1.33804	0.617953	1.44783	0.00200632	-0.000432218	3.74007e-11	-0.276664	0.601945	0.178099	
103112	1.33804	0.617953	1.44783	0.00142354	-0.000580958	4.45216e-12	-0.275799	0.601347	0.148405	
103411	1.33711	0.617026	1.44764	0.00157612	-0.000639998	9.65815e-12	-0.268527	0.602061	0.160969	
103502	1.33772	0.617578	1.44796	0.00136169	0.000960883	5.25413e-11	-0.243298	0.590636	0.159216	
103861	1.33736	0.61707	1.44787	0.00172289	0.000417725	6.70654e-11	-0.275831	0.602171	0.223551	
104162	1.33709	0.616721	1.4478	0.00208087	-3.02855e-05	4.11336e-11	-0.275827	0.600369	0.195874	
104191	1.33709	0.616721	1.4478	0.00129873	-0.000518329	8.27057e-11	-0.276353	0.602305	0.196918	
104222	1.33709	0.616721	1.4478	0.00069932	-0.000198094	3.64045e-11	-0.275326	0.602893	0.242697	
104431	1.33797	0.617514	1.44779	0.00275279	-0.00113943	8.44519e-11	-0.275755	0.60191	0.216543	
104612	1.3379	0.617318	1.44776	0.000812364	-0.00079721	6.76996e-11	-0.224461	0.602898	0.16119	
104881	1.3319	0.614002	1.44718	0.000103538	-0.000245217	2.41303e-11	-0.309204	0.601632	0.160869	
105032	1.33775	0.617513	1.44762	0.00148088	0.000124539	1.06809e-10	-0.235178	0.603679	0.169539	
105181	1.33523	0.616127	1.44766	0.000811123	0.000297122	1.53273e-10	-0.275532	0.603468	0.243291	
105421	1.33509	0.615756	1.44782	0.00142293	4.80989e-05	1.44743e-11	-0.323993	0.601568	0.160825	
106172	1.33885	0.618115	1.448	0.00230094	-0.000161188	4.82922e-11	-0.345967	0.600993	0.160974	
106472	1.3374	0.617025	1.4477	0.00106318	4.02682e-05	3.86534e-11	-0.281934	0.601756	0.161056	
106532	1.33775	0.617525	1.44789	0.000749418	0.00023349	4.22493e-11	-0.275563	0.601457	0.176039	
106592	1.33698	0.617142	1.44777	0.00135002	-0.000120696	1.117e-10	-0.276821	0.603102	0.169242	
106651	1.33806	0.617711	1.44791	0.00235365	0.000286837	1.44911e-11	-0.27635	0.602051	0.161012	
106802	1.33788	0.617906	1.44808	0.000310813	-0.000310565	2.40571e-11	-0.296967	0.601745	0.16038	
106831	1.33788	0.617906	1.44808	0.000897765	-0.000157819	1.93336e-11	-0.274946	0.601786	0.161113	
106951	1.33424	0.615243	1.44752	0.0010523	0.000541069	8.91227e-11	-0.277671	0.601249	0.17475	
107492	1.33715	0.617243	1.44788	0.00175557	7.01067e-05	8.18536e-11	-0.276452	0.60274	0.181897	
107942	1.33399	0.61518	1.44752	0.00133096	0.000275864	7.19613e-11	-0.337214	0.602217	0.239871	
107971	1.33399	0.61518	1.44752	0.000703243	-0.000538322	2.0332e-11	-0.267088	0.602668	0.169433	
108121	1.33377	0.615041	1.44766	0.00119735	0.00107145	2.41217e-11	-0.276042	0.603278	0.160811	
108301	1.3365	0.616585	1.4476	0.00130013	-0.000288834	2.93547e-11	-0.29073	0.601575	0.163082	
108422	1.33227	0.614237	1.44722	0.00168716	0.000223623	2.18509e-11	-0.26186	0.603131	0.242788	
108571	1.33797	0.617594	1.44807	0.00182895	-0.000950641	1.0681e-10	-0.264882	0.603142	0.178017	
108602	1.33797	0.617594	1.44807	0.00188611	-0.000850667	6.67681e-11	-0.332522	0.600747	0.158972	
108661	1.33765	0.617462	1.44802	0.00183734	1.192e-06	4.99663e-11	-0.278197	0.603628	0.166554	
108812	1.33874	0.618423	1.44796	0.0024373	-0.000521462	1.07694e-10	-0.277483	0.641596	0.23932	
108841	1.33874	0.618423	1.44796	0.00154054	-0.00159498	7.09195e-12	-0.276229	0.663803	0.236398	
108872	1.33874	0.618423	1.44796	0.00141749	-0.000246945	6.01273e-11	-0.341137	0.607248	0.222694	
108932	1.33758	0.617471	1.44808	0.000807318	-0.000518958	8.21456e-11	-0.271604	0.601211	0.16107	
109172	1.32995	0.612552	1.44705	0.000931793	0.000132745	1.45204e-10	-0.274886	0.60317	0.230482	
110432	1.33851	0.617931	1.44813	0.00204156	-9.06719e-05	5.32987e-12	-0.27666	0.602239	0.177662	
110492	1.33671	0.617105	1.44772	0.00155599	-0.000268773	8.09265e-11	-0.27581	0.602058	0.158679	
110612	1.33926	0.61845	1.44782	0.00197047	0.000229654	1.71131e-11	-0.289483	0.601753	0.142609	
111211	1.33268	0.614309	1.44718	0.00178644	-5.43146e-05	5.79801e-11	-0.2766	0.601366	0.161056	
111391	1.33692	0.617427	1.44743	0.00100903	-0.000591308	4.57419e-11	-0.276261	0.602189	0.169414	
111691	1.33065	0.616176	1.44283	0.00277819	-0.000291461	9.67653e-12	-0.275295	0.602295	0.161276	
111751	1.33098	0.61612	1.44297	0.0017306	-0.000586	4.34876e-11	-0.276956	0.602252	0.161065	
112171	1.33055	0.615073	1.44306	0.00115614	0.00115824	5.28827e-11	-0.314207	0.601539	0.160251	
112322	1.33106	0.615346	1.44317	0.00144335	-0.000374344	9.19764e-11	-0.272299	0.601934	0.161362	
112442	1.33014	0.614884	1.44294	0.00200254	-0.000635547	2.89882e-11	-0.276033	0.603407	0.161046	
112681	1.32968	0.614714	1.44297	0.00155766	0.00079861	1.40954e-11	-0.276002	0.602376	0.156615	
112802	1.33209	0.615926	1.44318	0.0022083	-0.0010733	8.81185e-11	-0.274604	0.601841	0.163182	
112831	1.33209	0.615926	1.44318	0.00241257	-6.26214e-05	4.89776e-11	-0.275743	0.603332	0.233227	
113072	1.33136	0.61562	1.4432	0.000860867	0.000337612	9.46404e-11	-0.275075	0.603127	0.197168	
113132	1.33178	0.615864	1.44324	0.00231815	-0.000668285	2.90296e-11	-0.275338	0.602338	0.161276	
113522	1.3304	0.615032	1.44293	0.00162876	0.00115119	8.69726e-11	-0.276763	0.602946	0.16106	
113851	1.33117	0.615332	1.44314	0.00188322	-0.000908341	9.99511e-11	-0.275723	0.603577	0.237979	
113941	1.32706	0.615333	1.44103	0.00203338	-0.000130351	7.74233e-11	-0.289554	0.603035	0.234616	
113972	1.32706	0.615333	1.44103	0.00113001	0.000281561	5.69608e-11	-0.28036	0.602739	0.237337	
114061	1.32571	0.615686	1.44356	0.00163498	-6.91889e-05	9.51487e-11	-0.275223	0.60331	0.243971	
114151	1.32924	0.617887	1.44384	0.00176606	0.000101333	2.89538e-11	-0.276693	0.602761	0.160855	
114181	1.32924	0.617887	1.44384	0.0015736	0.000762346	6.76775e-11	-0.275735	0.602238	0.161137	
114661	1.33041	0.619931	1.44629	0.00238713	0.000726976	3.85878e-11	-0.271082	0.604627	0.160783	
114781	1.3299	0.619478	1.44621	0.00123957	-0.000118661	2.33543e-11	-0.276926	0.602445	0.155696	
115051	1.32939	0.616179	1.44579	0.000461833	-0.000218478	1.92151e-11	-0.278465	0.676088	0.160126	
115082	1.32939	0.616179	1.44579	0.000459523	-0.000217385	1.45696e-10	-0.277441	0.636442	0.161884	
115171	1.32996	0.616855	1.44581	0.00228951	-0.00022104	3.43648e-11	-0.277364	0.637233	0.163642	
115562	1.32899	0.615556	1.44688	0.00213996	0.00073344	1.77649e-10	-0.275653	0.602393	0.204195	
115681	1.3295	0.615999	1.44682	0.00170739	0.000613424	2.89917e-11	-0.277872	0.603612	0.161065	
115741	1.33083	0.616605	1.44696	0.00237329	0.000123241	3.58607e-11	-0.276164	0.603049	0.239071	
115772	1.33083	0.616605	1.44696	0.00239406	-0.000343735	6.45634e-11	-0.275514	0.603096	0.239124	
115861	1.32666	0.613693	1.44347	0.00132852	0.000463486	4.2518e-11	-0.264806	0.603537	0.236211	
116941	1.33062	0.625505	1.46017	0.00264414	-0.00065057	3.66222e-11	-0.277697	0.673496	0.244148	
117091	1.3242	0.613009	1.44722	0.000918973	9.43206e-05	1.02353e-10	-0.278074	0.686689	0.31016	
117211	1.32752	0.614979	1.44802	0.00121587	0.000476193	8.89989e-11	-0.277698	0.596259	0.228202	
117721	1.32284	0.614939	1.43698	0.00197536	-0.000388006	9.27761e-11	-0.261168	0.61727	0.237888	
118141	1.32338	0.615174	1.437	0.00147292	-0.00133141	1.3791e-11	-0.285698	0.671595	0.153233	
118381	1.32275	0.615006	1.43681	0.00183573	0.000426641	6.2565e-11	-0.330573	0.614181	0.160423	
118412	1.32275	0.615006	1.43681	0.00279473	0.00124367	6.62082e-11	-0.273074	0.590013	0.200631	
118441	1.32275	0.615006	1.43681	0.00236041	-0.000641023	8.31498e-11	-0.280259	0.681462	0.213205	
118862	1.32369	0.615394	1.437	0.00142723	-0.000875627	8.51636e-11	-0.288706	0.603058	0.236565	
118891	1.32369	0.615394	1.437	0.00131896	-0.000430033	7.92474e-11	-0.271356	0.60193	0.203198	
118922	1.32369	0.615394	1.437	0.00144452	0.000168882	9.38226e-12	-0.275362	0.595895	0.156371	
119282	1.32282	0.615068	1.43675	0.00116018	-0.000253181	4.75331e-11	-0.275356	0.602399	0.176049	
119611	1.32545	0.615234	1.43753	0.00109106	0.000314236	8.47662e-11	-0.278527	0.618556	0.156974	
119791	1.32449	0.61472	1.43747	0.00227566	-0.000269278	1.15663e-10	-0.356593	0.601632	0.160643	
119821	1.32449	0.61472	1.43747	0.0013263	0.00029872	2.4167e-11	-0.269903	0.602223	0.161113	
121171	1.32561	0.615418	1.43758	0.00206395	-8.29365e-05	1.28052e-11	-0.276043	0.60296	0.21342	
121531	1.32593	0.615621	1.43761	0.00115648	0.000452221	3.39223e-11	-0.276727	0.602063	0.161535	
121832	1.32601	0.615526	1.43751	0.00167237	0.00027549	1.20562e-10	-0.280028	0.608906	0.223264	
122162	1.32517	0.614913	1.43747	0.000445971	0.000438258	9.9444e-12	-0.276233	0.601945	0.16574	
122191	1.32517	0.614913	1.43747	0.00138551	-0.000365749	3.88626e-11	-0.275318	0.603429	0.161928	
122521	1.32499	0.615043	1.43731	0.00143433	0.000314599	1.44963e-11	-0.273999	0.603595	0.16107	
122822	1.3246	0.614725	1.43747	0.00192106	0.000267578	1.92473e-11	-0.274704	0.642731	0.160394	
123181	1.32557	0.615321	1.43742	0.00101549	0.000712364	8.21408e-11	-0.276156	0.602281	0.16106	
123481	1.32495	0.61509	1.4375	-6.91578e-06	-0.000485925	3.00807e-11	-0.275526	0.604434	0.143242	
123871	1.32749	0.61643	1.43767	0.00199131	-4.63653e-05	6.28229e-11	-0.276178	0.601989	0.161084	
124261	1.32562	0.615367	1.43755	0.00132369	1.46968e-05	6.76031e-11	-0.291008	0.603615	0.16096	
124441	1.32523	0.615194	1.43752	0.000716073	-0.000188585	9.67022e-12	-0.276332	0.602698	0.16117	
124501	1.32264	0.61368	1.4372	0.00120267	-0.000645327	4.74644e-11	-0.283712	0.602088	0.175794	
124562	1.32341	0.614229	1.43731	0.00130387	4.2924e-05	1.06625e-10	-0.250399	0.603106	0.236944	
124622	1.32441	0.61469	1.43761	0.00165403	-0.000241066	3.55926e-11	-0.195606	0.673653	0.237284	
124801	1.32301	0.613904	1.43727	0.00294547	-0.000774752	2.40886e-11	-0.293538	0.60164	0.160591	
124832	1.32301	0.613904	1.43727	0.00271925	-0.000241998	6.76252e-11	-0.263351	0.603825	0.161012	
125341	1.32418	0.614461	1.43733	0.00203115	-0.00102663	9.25858e-11	-0.283142	0.604756	0.220442	
125402	1.32521	0.615133	1.43745	0.00160973	9.81347e-05	3.77733e-11	-0.350498	0.616383	0.104926	
125612	1.32399	0.614422	1.43714	0.00154394	-0.000374523	3.87234e-11	-0.27474	0.602704	0.161347	
125822	1.32466	0.6148	1.43726	0.000814401	-0.00116857	7.28699e-11	-0.276646	0.666116	0.1735	
125972	1.32163	0.61309	1.43721	0.00120277	0.000857099	1.02082e-10	-0.275696	0.629362	0.243051	
126481	1.32417	0.614591	1.43736	0.0016899	0.000511839	2.89047e-11	-0.349618	0.606216	0.160581	
126601	1.32471	0.614888	1.43733	0.0021518	-0.000341365	4.34836e-11	-0.275777	0.602835	0.16105	
126692	1.32557	0.615326	1.43746	0.00150627	-0.000900975	9.63963e-11	-0.276959	0.603803	0.229515	
126752	1.32532	0.61521	1.43745	0.00212221	0.000197325	9.6537e-11	-0.277007	0.602922	0.22985	
126961	1.3252	0.615088	1.43751	0.00122747	4.835e-05	4.76468e-11	-0.277497	0.686509	0.22689	
127202	1.32377	0.614306	1.43737	0.00164938	-0.00037858	1.7048e-11	-0.277589	0.673236	0.189422	
127382	1.32414	0.614584	1.43738	0.00186169	-0.000186684	3.2848e-11	-0.276439	0.602219	0.156419	
127502	1.32334	0.614184	1.43722	0.00098553	-0.000319052	4.09273e-11	-0.276694	0.662852	0.227374	
127591	1.32286	0.614	1.43715	0.00141203	0.000407576	4.97582e-11	-0.22446	0.693108	0.236944	
127622	1.32286	0.614	1.43715	0.00183497	0.000680402	5.12108e-11	-0.277012	0.647385	0.243861	
128072	1.32429	0.614557	1.4375	0.0015689	0.000364012	1.24538e-10	-0.275932	0.606059	0.244191	
128161	1.32349	0.61423	1.43727	0.00167911	-0.000779783	1.01073e-10	-0.276545	0.61734	0.160433	
128311	1.32508	0.614986	1.43727	0.00168738	-4.34168e-05	7.24772e-11	-0.275708	0.603042	0.16106	
128912	1.32546	0.615199	1.43755	0.00107835	-0.000110027	5.77938e-11	-0.362598	0.60033	0.160538	
129031	1.32397	0.614371	1.43727	0.00208895	-0.000755829	2.33239e-11	-0.276698	0.602447	0.194366	
129332	1.32376	0.61432	1.43738	0.00242863	0.000483737	1.43506e-11	-0.282723	0.636271	0.159451	
129392	1.32398	0.614446	1.43748	0.00179256	-0.000692073	2.66048e-11	-0.274176	0.595577	0.177365	
129602	1.32496	0.614881	1.43735	0.00188189	-0.0015467	5.79748e-11	-0.281996	0.602072	0.161041	
129722	1.32462	0.614696	1.43758	0.0016584	8.83836e-05	4.88872e-11	-0.277002	0.605056	0.162957	
129781	1.32596	0.615375	1.43757	0.00142487	-0.000873161	7.74883e-11	-0.275509	0.602952	0.161434	
129992	1.32367	0.614223	1.43734	0.00181677	0.000682268	6.17431e-11	-0.277289	0.673073	0.158316	
130231	1.32526	0.615012	1.43763	0.00162111	-0.000863995	2.40678e-11	-0.283962	0.634593	0.160452	
130322	1.32608	0.615468	1.43764	0.0022773	-0.000209302	4.6404e-11	-0.278212	0.688335	0.171867	
130471	1.32482	0.614809	1.43746	0.00272137	0.000305771	1.112e-10	-0.276116	0.67105	0.168485	
130561	1.32514	0.615052	1.43751	0.00224981	0.00030823	5.78782e-11	-0.310681	0.601642	0.160773	
130681	1.32461	0.614705	1.43753	0.00127748	-0.000602793	1.20763e-10	-0.278061	0.679556	0.236791	
130742	1.32494	0.614951	1.43749	0.00101013	-0.0001265	6.42633e-11	-0.276259	0.602123	0.238012	
130862	1.32532	0.615111	1.43754	0.00137054	0.000655094	1.4196e-10	-0.270082	0.594629	0.236599	
130952	1.32644	0.615781	1.43761	0.00172661	0.000143292	1.07114e-10	-0.195522	0.62678	0.223154	
131221	1.32579	0.615369	1.43761	0.00178053	0.000762348	1.44445e-11	-0.2773	0.65697	0.160495	
131611	1.32337	0.613671	1.43738	0.00154287	0.000349308	1.51994e-11	-0.256629	0.597924	0.168882	
132121	1.32492	0.614894	1.43739	0.00143989	0.000155095	2.89814e-11	-0.274676	0.609808	0.161008	
132331	1.32515	0.614985	1.43734	0.00184364	-0.000129092	6.28211e-11	-0.275237	0.602042	0.16108	
132362	1.32515	0.614985	1.43734	0.00236975	-7.27319e-05	2.41519e-11	-0.290696	0.601601	0.161012	
132482	1.32333	0.613988	1.43729	0.00201333	-0.000429679	9.67973e-12	-0.276107	0.603239	0.161329	
132901	1.3244	0.61488	1.4374	0.00110684	0.000813228	1.27501e-10	-0.275148	0.645858	0.250002	
132962	1.32335	0.614179	1.43727	0.00154893	0.000763946	4.21128e-11	-0.341891	0.614136	0.155973	
133082	1.32403	0.614395	1.43726	0.00139676	-0.000386395	3.41427e-11	-0.276492	0.607176	0.227618	
133442	1.32477	0.614593	1.43712	0.00123241	-0.000173013	6.11937e-11	-0.277685	0.68776	0.203979	
133771	1.32332	0.613852	1.4374	0.00077966	0.000115354	6.5867e-12	-0.276725	0.598422	0.219557	
133802	1.32332	0.613852	1.4374	0.00135474	-0.000466988	8.94396e-11	-0.275416	0.603485	0.149066	
133981	1.32022	0.611944	1.43706	0.00112897	-3.81376e-05	9.66362e-11	-0.276027	0.602301	0.16106	
134012	1.32022	0.611944	1.43706	0.00102684	-0.000753017	1.06063e-10	-0.275953	0.625245	0.160701	
134191	1.31576	0.608276	1.43692	0.0017757	-0.000506329	2.40348e-11	-0.277387	0.651217	0.160232	
134312	1.3211	0.612187	1.43758	0.00109512	0.000120879	6.40947e-11	-0.276602	0.610278	0.194226	
134582	1.32465	0.614677	1.43738	0.00137428	0.000247179	8.64432e-11	-0.276953	0.600632	0.24012	
134821	1.32464	0.614783	1.43751	0.000840348	-0.000145124	7.32992e-11	-0.277378	0.647213	0.222119	
134852	1.32464	0.614783	1.43751	0.000733139	0.000828368	5.12657e-11	-0.276975	0.659812	0.155351	
134941	1.32505	0.614906	1.43763	0.00165866	-0.000941593	8.82796e-11	-0.276898	0.638132	0.226358	
135151	1.32406	0.614313	1.43746	0.001536	-4.72153e-05	1.04057e-10	-0.197097	0.638868	0.247755	
135362	1.32413	0.614414	1.43738	0.00247986	-0.000867711	7.76178e-11	-0.276069	0.671527	0.235205	
135512	1.32363	0.614139	1.43711	0.00212968	-0.000323899	4.11829e-11	-0.278611	0.598244	0.152529	
135631	1.32445	0.614669	1.43726	0.000937538	-0.000814625	5.76379e-11	-0.271636	0.603365	0.240158	
135662	1.32445	0.614669	1.43726	0.000870724	-0.000793507	4.29724e-11	-0.276075	0.602706	0.238735	
135811	1.32414	0.614489	1.43725	0.00120122	0.000380206	3.07618e-11	-0.278474	0.608824	0.170899	
135991	1.32518	0.615097	1.4374	0.00126085	0.000732622	1.07116e-10	-0.276136	0.602971	0.238036	
136051	1.32388	0.614375	1.4372	0.00168146	-0.000126112	6.95478e-11	-0.276877	0.601722	0.154551	
136292	1.32612	0.615636	1.43763	0.00180367	-0.00102363	7.11149e-12	-0.276282	0.647277	0.23705	
136441	1.32521	0.615109	1.43729	0.00107401	0.000394032	2.79786e-11	-0.190595	0.673237	0.310874	
137341	1.32368	0.614256	1.4373	0.00138837	-0.000967601	9.32938e-12	-0.275488	0.602224	0.15549	
137642	1.32309	0.613832	1.43736	0.00187565	-0.000110842	2.79579e-11	-0.275517	0.603292	0.232983	
137911	1.32366	0.614128	1.43736	0.0019512	-0.000167343	9.95427e-11	-0.277198	0.662266	0.237006	
137941	1.32366	0.614128	1.43736	0.000587285	0.000137956	2.8504e-11	-0.275697	0.631247	0.237533	
138002	1.32439	0.614552	1.43755	0.00118155	-0.000139499	1.06823e-10	-0.277957	0.638875	0.237385	
138242	1.32428	0.614554	1.43737	0.00218794	-1.03935e-06	1.24611e-10	-0.272336	0.671397	0.159758	
138362	1.32441	0.614548	1.43738	0.00158629	0.000274757	2.02682e-11	-0.265304	0.603917	0.168902	
138422	1.32455	0.614742	1.43747	0.00156011	-0.000690964	2.63864e-11	-0.275674	0.60336	0.175909	
139022	1.3234	0.613878	1.4373	0.000980549	-0.000348915	5.13486e-11	-0.275612	0.602741	0.244517	
139082	1.32307	0.613488	1.43734	0.00194716	-0.00117211	8.28769e-11	-0.267673	0.617648	0.251142	
139201	1.3235	0.613892	1.43725	0.00255557	0.000106283	1.29522e-10	-0.27534	0.618582	0.239856	
139622	1.32189	0.612966	1.43709	0.000896697	-0.000384431	1.35222e-10	-0.290792	0.601711	0.160979	
139861	1.32147	0.612836	1.43697	0.00119876	0.000952994	5.67246e-11	-0.310509	0.66945	0.157568	
139952	1.32388	0.614321	1.43725	0.000866676	0.00109835	7.18909e-11	-0.275892	0.667609	0.159758	
140161	1.32396	0.614429	1.43743	0.00164064	-0.000666251	5.70793e-11	-0.272759	0.676596	0.23783	
140672	1.3248	0.614899	1.43752	0.00191388	0.000853769	5.29712e-11	-0.276834	0.602242	0.160519	
140732	1.32441	0.614558	1.43754	0.00182399	9.70066e-05	3.73577e-11	-0.275729	0.601682	0.155657	
141001	1.32681	0.615997	1.43756	7.09995e-05	0.000470917	5.79714e-11	-0.276406	0.60498	0.161032	
141421	1.32481	0.614789	1.43764	0.00293803	0.000107167	6.82838e-11	-0.314661	0.635507	0.227613	
141692	1.32465	0.614609	1.43737	0.00278888	-0.000540314	5.56692e-11	-0.273227	0.602331	0.154637	
142142	1.32393	0.614393	1.43728	0.000632082	-0.000472052	1.4993e-10	-0.275975	0.603597	0.237983	
142262	1.32331	0.613929	1.43736	0.00269909	0.000178635	1.80158e-11	-0.275772	0.61022	0.300264	
142651	1.32243	0.613263	1.4373	0.00184705	0.000397074	7.25116e-11	-0.275077	0.602821	0.161137	
142711	1.32586	0.615521	1.43756	0.00174502	0.000177968	1.4501e-11	-0.275981	0.600529	0.161122	
143252	1.32351	0.614194	1.43737	0.00299456	-7.79078e-05	5.25174e-11	-0.275969	0.595151	0.250083	
143341	1.32224	0.613301	1.43725	0.00111075	0.000735761	4.38523e-11	-0.277074	0.621381	0.162416	
143672	1.32383	0.6142	1.43729	0.00229455	6.04792e-05	2.45407e-11	-0.276608	0.610978	0.204506	
143701	1.32383	0.6142	1.43729	0.00133014	0.00059227	3.41154e-11	-0.275377	0.601415	0.162454	
143941	1.32549	0.615112	1.43755	0.00194898	-0.000583268	1.93272e-11	-0.274947	0.601394	0.16106	
144182	1.32198	0.613156	1.43742	0.00233576	0.000129302	1.0659e-10	-0.242207	0.680516	0.236867	
144362	1.32328	0.613867	1.43758	0.00037249	0.000211979	4.58407e-11	-0.280526	0.602842	0.191003	
144452	1.32327	0.613936	1.43749	0.00251206	0.000313494	4.81687e-11	-0.276438	0.601938	0.160562	
144571	1.32317	0.613826	1.43734	0.00147447	0.000342232	7.21106e-11	-0.28092	0.597453	0.160246	
144602	1.32317	0.613826	1.43734	0.00102733	-0.000127028	5.78834e-11	-0.274455	0.602145	0.160787	
144872	1.32242	0.613477	1.43719	0.00102851	0.00038689	4.2756e-11	-0.276029	0.603926	0.237533	
144901	1.32242	0.613477	1.43719	0.00220432	0.000128658	2.17703e-11	-0.275693	0.618214	0.241892	
145171	1.32332	0.614115	1.43759	0.00120557	-0.00019586	3.90994e-11	-0.275659	0.603485	0.217219	
145291	1.32485	0.614913	1.43752	0.00167692	0.000212574	1.56219e-10	-0.274575	0.600376	0.236695	
145321	1.32485	0.614913	1.43752	0.00174097	-0.000317676	9.91222e-12	-0.275653	0.601612	0.165204	
145352	1.32485	0.614913	1.43752	0.00162034	-0.000566072	5.56894e-11	-0.277669	0.692214	0.232039	
145591	1.32183	0.613024	1.43725	0.00161044	-0.000171869	2.89909e-11	-0.277724	0.602783	0.16106	
146221	1.32435	0.614686	1.43736	0.00244097	-0.000321087	9.66734e-11	-0.276682	0.598512	0.161122	
146281	1.32542	0.615313	1.43745	0.00119181	-0.000552411	4.03409e-11	-0.275534	0.602645	0.224116	
146371	1.3249	0.614903	1.43745	0.00156521	-0.000820564	9.76996e-12	-0.274761	0.602639	0.162833	
146461	1.32578	0.61541	1.43749	0.00243058	-0.000127419	7.25374e-11	-0.275466	0.602489	0.161194	
146551	1.32287	0.613754	1.43709	0.000941992	0.000548505	1.43575e-11	-0.255283	0.59877	0.239291	
146641	1.32344	0.614119	1.43714	0.00124663	0.000307812	4.66213e-11	-0.264075	0.693262	0.259007	
147092	1.32505	0.615039	1.43767	0.0012361	-0.000850996	5.69276e-11	-0.206576	0.671228	0.237198	
147362	1.32323	0.613953	1.43745	0.00121683	-0.00103347	1.43083e-11	-0.275203	0.599398	0.238472	
147421	1.32437	0.614605	1.43752	0.00118413	0.000791015	1.3472e-11	-0.275624	0.60308	0.224533	
147511	1.32272	0.613606	1.43724	0.00142319	0.00122593	3.02169e-11	-0.277039	0.650974	0.167872	
147692	1.32381	0.61418	1.43732	0.000971538	-0.000154462	1.10914e-10	-0.268459	0.60314	0.176053	
147871	1.32297	0.613974	1.43732	0.00200358	0.000855097	2.87796e-11	-0.264602	0.603755	0.319774	
147992	1.32372	0.614201	1.43729	0.00189138	-0.000232886	6.12913e-11	-0.279817	0.60537	0.227005	
148411	1.32595	0.615391	1.43753	0.00158381	-0.000126222	5.31277e-11	-0.276334	0.604896	0.160993	
148531	1.32428	0.614547	1.43732	0.00209943	0.000612854	2.29483e-11	-0.276928	0.615395	0.152989	
148591	1.32496	0.614958	1.43738	0.00194638	0.000534802	2.42108e-11	-0.276305	0.613938	0.161405	
148892	1.32555	0.615274	1.43763	0.00160338	0.000410006	7.34025e-11	-0.276607	0.593539	0.244675	
149011	1.32703	0.616058	1.43767	0.00158168	-0.000537296	4.77605e-11	-0.308844	0.642215	0.159202	
149042	1.32703	0.616058	1.43767	0.00117982	-0.000585519	7.5479e-11	-0.274572	0.598836	0.228724	
149492	1.323	0.613719	1.43717	0.00203432	0.00024058	1.2199e-10	-0.273079	0.603916	0.254145	
149672	1.32437	0.614465	1.43751	0.00167182	-0.000102523	4.97006e-11	-0.27562	0.598701	0.165669	
149882	1.32362	0.61408	1.43746	0.00110457	-0.000234704	2.6408e-11	-0.275821	0.601801	0.176053	
150091	1.32299	0.613564	1.43732	0.00126931	0.00018368	4.86819e-11	-0.276246	0.600746	0.231819	
150332	1.32532	0.6151	1.4377	0.00140798	-0.000312411	1.15524e-11	-0.274937	0.602775	0.192541	
150452	1.32479	0.614768	1.43752	0.00114712	0.0002799	3.58182e-11	-0.274406	0.598722	0.238788	
150962	1.32566	0.615454	1.43758	0.00213141	-0.000235711	3.58211e-11	-0.276452	0.621205	0.238807	
150991	1.32566	0.615454	1.43758	0.00112909	-0.000387839	8.28874e-11	-0.27687	0.689767	0.230243	
151171	1.32518	0.615066	1.43732	0.00168533	5.14344e-05	8.32254e-11	-0.276928	0.635118	0.163187	
151202	1.32518	0.615066	1.43732	0.000687911	0.00038368	3.35832e-11	-0.277348	0.684633	0.15992	
151291	1.32455	0.614734	1.43732	0.000895503	-0.000513416	9.25638e-12	-0.275462	0.601006	0.154273	
151352	1.32467	0.614835	1.4374	0.00117338	-0.000647283	8.65457e-11	-0.277748	0.617521	0.16027	
151441	1.32456	0.614675	1.43743	0.00115891	0.000902678	6.28205e-11	-0.339132	0.596591	0.139601	
152762	1.32435	0.614671	1.4374	0.00210574	-0.00107586	1.43898e-11	-0.27646	0.64511	0.159887	
153061	1.32505	0.614832	1.43726	0.00194783	-0.000167761	2.54638e-11	-0.275849	0.597142	0.169759	
153361	1.32399	0.614459	1.43725	0.00191211	0.00019998	4.68294e-11	-0.276592	0.671057	0.156098	
154291	1.32533	0.61514	1.43726	0.000214485	-0.000460263	5.31673e-11	-0.278158	0.599052	0.161113	
154471	1.32501	0.614858	1.4373	0.000881655	-0.00119601	3.9104e-11	-0.276147	0.60423	0.162933	
154501	1.32501	0.614858	1.4373	0.000745879	-0.000328235	5.30409e-11	-0.275775	0.604316	0.16073	
154681	1.32472	0.614771	1.43732	0.00201178	-0.000403603	1.93352e-11	-0.27612	0.60641	0.161127	
154951	1.32509	0.614995	1.43728	0.0019732	-6.78806e-05	1.4373e-11	-0.275271	0.588956	0.1597	
155401	1.32398	0.61442	1.43736	0.00196779	0.000936646	2.47144e-11	-0.277321	0.678798	0.164763	
155611	1.32379	0.61418	1.43745	0.000953944	-0.000772728	1.4237e-10	-0.275746	0.655522	0.237284	
155791	1.3237	0.614207	1.43733	0.00174546	-0.000198031	2.80825e-11	-0.276598	0.684745	0.312028	
155941	1.32469	0.614608	1.43746	0.000483004	-0.000630527	7.87242e-11	-0.28418	0.643726	0.238558	
156031	1.32236	0.613516	1.43717	0.001163	-0.00011718	3.56903e-11	-0.276296	0.603388	0.237935	
156062	1.32236	0.613516	1.43717	0.00153996	-0.000449581	3.16983e-11	-0.27571	0.603215	0.211322	
156452	1.32345	0.614043	1.43732	0.0011586	-0.000396633	7.86533e-11	-0.275224	0.592425	0.201675	
156481	1.32345	0.614043	1.43732	0.00183339	-5.64514e-05	7.78833e-11	-0.275518	0.602126	0.23601	
156572	1.32365	0.614113	1.43716	0.00171343	0.00110002	1.45982e-10	-0.276313	0.601786	0.194643	
156601	1.32365	0.614113	1.43716	0.00260811	0.0011215	1.1817e-10	-0.276585	0.671138	0.218833	
156752	1.32471	0.614824	1.43746	0.00270713	0.000777921	1.25002e-10	-0.269605	0.603712	0.219302	
157441	1.32612	0.615768	1.43752	0.00266149	-0.00128266	8.16699e-11	-0.278356	0.671197	0.151241	
157561	1.32598	0.615496	1.43759	0.00109505	-9.23405e-05	1.00841e-10	-0.275107	0.618529	0.210086	
157712	1.32406	0.614409	1.43743	0.00113349	0.000758672	1.8253e-10	-0.276214	0.677792	0.234013	
157771	1.32459	0.614757	1.43744	0.000754129	0.00052205	2.83695e-11	-0.276915	0.679137	0.236412	
157862	1.32442	0.61468	1.43753	0.00151182	0.000274294	6.44974e-11	-0.27602	0.591134	0.238879	
158041	1.32446	0.614686	1.43733	0.000940165	0.000685037	4.91256e-11	-0.276141	0.612025	0.233931	
158072	1.32446	0.614686	1.43733	0.00178983	0.000529227	1.05797e-10	-0.27664	0.701291	0.235105	
158101	1.32446	0.614686	1.43733	0.00132937	-0.00049739	7.10128e-11	-0.277195	0.640337	0.236709	
158132	1.32446	0.614686	1.43733	0.00177467	-0.000912904	1.20327e-10	-0.276864	0.62441	0.222828	
158311	1.32492	0.615165	1.43733	0.000689066	-4.29193e-05	4.476e-12	-0.276074	0.593713	0.1492	
158551	1.32492	0.615091	1.43716	0.00123056	-9.66315e-06	3.22756e-11	-0.276577	0.651403	0.153693	
158582	1.32492	0.615091	1.43716	0.00155162	0.000713008	1.37559e-11	-0.275668	0.594122	0.229266	
158641	1.32483	0.614971	1.43714	0.000752631	-0.000214367	5.18827e-11	-0.276259	0.638301	0.247061	
158851	1.32555	0.615308	1.43752	0.0018376	-0.00021737	5.81783e-11	-0.27581	0.605597	0.24241	
158882	1.32555	0.615308	1.43752	0.00154573	-0.000499418	2.84948e-11	-0.277683	0.685968	0.237457	
159001	1.32577	0.615296	1.43744	0.0010041	0.000548153	5.5687e-11	-0.278267	0.60424	0.232029	
159271	1.32518	0.615036	1.43737	0.00241364	-0.000347717	6.14294e-11	-0.275963	0.598172	0.204765	
159301	1.32518	0.615036	1.43737	0.00156177	-0.000481611	6.70466e-11	-0.274044	0.631937	0.223489	
159421	1.32483	0.614872	1.43743	0.00112045	-0.000115359	8.57414e-11	-0.275806	0.601887	0.238171	
159512	1.32438	0.614587	1.43727	0.00202928	0.000387249	5.11274e-11	-0.275742	0.616968	0.170425	
159722	1.32535	0.615137	1.43752	0.000723994	0.00062234	1.15907e-10	-0.281064	0.603616	0.214642	
159751	1.32535	0.615137	1.43752	0.00149103	3.03366e-05	5.15106e-11	-0.279215	0.602519	0.245288	
159782	1.32535	0.615137	1.43752	0.00147616	3.00338e-05	2.05958e-10	-0.275635	0.602754	0.245188	
159811	1.32535	0.615137	1.43752	0.00222035	-6.53174e-05	9.22288e-11	-0.309951	0.691434	0.236484	
160232	1.32558	0.61524	1.43746	0.00107393	-4.15526e-05	1.2233e-10	-0.276752	0.600332	0.169903	
160471	1.32412	0.614343	1.43721	0.0009486	7.15576e-05	7.74468e-11	-0.276639	0.603313	0.161347	
160562	1.32477	0.614652	1.4373	0.00135743	0.000794343	1.57423e-10	-0.276608	0.603805	0.249877	
160681	1.32483	0.614866	1.43733	0.00148005	0.00155052	6.77116e-11	-0.267282	0.600919	0.17362	
160712	1.32483	0.614866	1.43733	0.00148005	0.00155052	2.29178e-10	-0.267282	0.600919	0.17362	
160801	1.32274	0.613728	1.43714	0.000718628	-0.000505258	5.35614e-11	-0.276491	0.596919	0.223172	
161132	1.32469	0.61475	1.43743	0.00193986	-0.00169379	4.37303e-11	-0.26301	0.590794	0.242946	
161341	1.32584	0.615496	1.43765	0.0017153	0.000243118	4.24629e-11	-0.277201	0.690132	0.235905	
161551	1.32297	0.613668	1.43736	0.00188762	-0.000190088	3.00314e-11	-0.275972	0.603646	0.200209	
161582	1.32297	0.613668	1.43736	0.00212621	-0.000874394	9.50727e-11	-0.275761	0.601971	0.166794	
161672	1.32349	0.614028	1.43744	0.000830338	0.000115604	1.22428e-10	-0.276606	0.678375	0.214785	
161792	1.32465	0.614768	1.43733	0.00141727	-0.000152939	5.06245e-11	-0.275238	0.59672	0.168748	
161911	1.32434	0.614532	1.43734	0.00109187	-6.71191e-05	9.5422e-11	-0.276812	0.675719	0.167407	
162512	1.32428	0.614491	1.43733	0.00197006	-0.000737449	3.87223e-11	-0.314858	0.601132	0.161343	
162541	1.32428	0.614491	1.43733	0.00208079	1.98958e-05	5.27383e-12	-0.280626	0.602085	0.175794	
162601	1.324	0.614314	1.4375	0.00159042	0.000571934	1.17046e-10	-0.27764	0.687288	0.162564	
162691	1.32514	0.615017	1.43728	0.00187016	0.000672702	6.31086e-11	-0.276648	0.597852	0.161817	
162722	1.32514	0.615017	1.43728	0.00141789	-0.000310653	4.35082e-11	-0.276008	0.599286	0.161142	
162751	1.32514	0.615017	1.43728	0.00203455	-0.000847163	3.82969e-11	-0.277677	0.690783	0.159571	
162782	1.32514	0.615017	1.43728	0.00179284	-0.000115458	4.31862e-11	-0.277581	0.665782	0.159949	
163051	1.32549	0.615336	1.43754	0.00105742	0.000416732	1.34848e-10	-0.276845	0.671028	0.236575	
163082	1.32549	0.615336	1.43754	0.00224954	0.000680456	6.01715e-11	-0.276774	0.591477	0.143266	
163412	1.32448	0.614626	1.4374	0.000815548	-5.15964e-05	1.136e-10	-0.284579	0.634307	0.164638	
163622	1.32568	0.6154	1.43747	0.000636506	0.000319986	1.14057e-10	-0.275074	0.602674	0.223642	
163712	1.32357	0.614124	1.43745	0.00210698	0.00248993	7.92222e-11	-0.275948	0.602813	0.240067	
163891	1.32427	0.614465	1.43737	0.00215363	0.000825183	3.54447e-11	-0.245094	0.676235	0.236298	
164131	1.3252	0.615	1.43755	-0.0128188	0.0209782	0.00333224	1.86026e+07	1.20607e+07	4.86941e+06	
164461	1.32349	0.614018	1.43736	0.00227398	-6.0818e-05	6.78124e-11	-0.281472	0.595889	0.161458	
164702	1.32348	0.61407	1.43732	0.00224511	0.000155176	2.40542e-11	-0.261044	0.600217	0.160361	
164822	1.32539	0.615165	1.43746	0.00233263	-3.11085e-05	2.85546e-11	-0.275573	0.618187	0.237955	
164971	1.32572	0.615312	1.43747	0.00212829	-0.000677698	9.55525e-11	-0.276072	0.612333	0.159254	
165031	1.32436	0.614596	1.43733	0.0014921	6.01321e-05	3.74809e-11	-0.27559	0.603204	0.249873	
165271	1.32399	0.614548	1.43728	0.00178293	9.82421e-05	8.99764e-11	-0.275248	0.602404	0.249935	
165421	1.3229	0.613765	1.43715	0.00229813	-0.00118567	2.59766e-11	-0.278326	0.692978	0.144315	
165541	1.32313	0.613929	1.43708	0.00140151	-0.000104018	6.8096e-11	-0.275869	0.613039	0.162133	
165571	1.32313	0.613929	1.43708	0.00170824	0.000375681	7.72124e-11	-0.35007	0.602304	0.160859	
165632	1.32305	0.613872	1.43721	0.00185416	-0.000515047	8.96455e-11	-0.276019	0.617628	0.175775	
165691	1.32338	0.614092	1.4372	0.000906001	-0.000166533	2.89814e-11	-0.277438	0.678994	0.161008	
166171	1.32411	0.61432	1.43735	-0.0121137	0.0421404	0.00946653	9.57138e+06	4.2241e+06	1.93278e+06	
166261	1.32447	0.614599	1.43733	0.000974429	-0.000273909	5.27436e-11	-0.277868	0.675245	0.159829	
166321	1.3237	0.614092	1.43735	0.00135266	-0.000838981	6.33861e-11	-0.27564	0.599373	0.176073	
166381	1.32588	0.61544	1.43753	0.00169648	0.000233951	6.26341e-11	-0.276799	0.610622	0.1606	
166442	1.32522	0.615039	1.43748	0.00232796	0.00111823	6.2879e-11	-0.276106	0.604953	0.161228	
166621	1.32362	0.614061	1.43724	0.00185656	-0.000709589	7.72102e-11	-0.276938	0.614915	0.160855	
166712	1.32295	0.613907	1.43709	0.00140395	0.000388346	1.57133e-11	-0.278509	0.686845	0.174592	
166741	1.32295	0.613907	1.43709	0.00134047	-0.000131326	3.59414e-11	-0.276229	0.601693	0.149756	
166921	1.32514	0.614881	1.43735	0.00146656	-0.000120389	2.07219e-11	-0.277157	0.659137	0.230243	
166952	1.32514	0.614881	1.43735	0.00239552	0.000663575	5.17778e-11	-0.276936	0.668163	0.156902	
167101	1.32415	0.614532	1.43725	0.00100162	0.00086317	9.18208e-11	-0.27571	0.602806	0.161089	
167221	1.32471	0.614765	1.43744	-0.0070593	0.0115821	0.00161002	2.69121e+06	2.06396e+06	-1.03848e+06	
167372	1.32362	0.614166	1.43727	0.000591135	-6.52157e-05	9.60671e-11	-0.271176	0.602079	0.213482	
168241	1.3242	0.614507	1.43747	0.000249585	-2.75565e-05	1.38022e-10	-0.215037	0.581066	0.200032	
168272	1.3242	0.614507	1.43747	0.000243406	-2.68759e-05	1.05164e-10	-0.0885084	0.482217	0.184498	
168331	1.32098	0.612288	1.43725	0.000225775	-2.49288e-05	5.00862e-11	-0.32558	0.494989	0.238506	
168362	1.32098	0.612288	1.43725	0.000217989	-2.40711e-05	3.56735e-11	-0.317951	0.616687	0.14864	
168451	1.32306	0.613979	1.43707	0.000200181	-2.21065e-05	1.05469e-10	-0.251805	0.509831	0.292971	
168542	1.32346	0.61394	1.43738	0.000181995	-2.00997e-05	8.82935e-11	-0.119973	0.815224	0.327013	
168841	1.32147	0.612646	1.43743	0.000134719	-1.48858e-05	3.41101e-11	0.142998	0.690097	0.284251	
169021	1.33125	0.613577	1.44151	0.000114182	-1.26133e-05	1.13332e-10	-0.269875	0.484485	0.236108	
169261	1.3221	0.603864	1.44243	8.97643e-05	-9.91667e-06	1.64468e-11	-0.115202	0.564527	0.137057	
169411	1.33218	0.619061	1.45377	7.83945e-05	-8.66943e-06	9.8362e-11	-0.189277	0.485346	0.182152	
169622	1.31522	0.610042	1.44546	6.25661e-05	-6.91382e-06	-6.68005e-11	-0.316918	0.473865	-0.148446	
169742	1.31701	0.613344	1.44056	5.54838e-05	-6.11611e-06	-1.12486e-10	-0.160908	0.550383	-0.624922	
169831	1.30774	0.608248	1.44011	5.06906e-05	-5.59451e-06	-6.72549e-10	-0.268304	0.497924	-1.31872	
169862	1.30774	0.608248	1.44011	4.91868e-05	-5.44167e-06	-4.35109e-10	-0.377967	0.67135	-1.31851	
170221	1.30229	0.606606	1.42854	0.0319629	0.0241787	-2.01411e-10	-0.557332	0.635959	-2.2379	
170251	1.30229	0.606606	1.42854	0.0506996	0.0401325	-5.90522e-10	-0.340938	0.48483	-1.96841	
170342	1.29297	0.596587	1.41675	0.0278229	0.0268356	-2.23446e-09	-0.284319	0.645463	-3.92011	
170881	1.21213	0.551903	1.36053	0.146687	0.144102	3.402e-09	-0.176146	0.613613	5.4	
170941	1.2252	0.559406	1.3604	0.126011	0.174835	2.96399e-09	-0.329744	0.63101	5.19998	
171061	1.18377	0.538971	1.34054	0.0439249	0.0642585	1.07718e-09	-0.142074	0.552114	2.99217	
171211	1.17426	0.537645	1.3459	-0.019858	-0.0127912	5.65635e-10	-0.187776	0.508248	0.75418	
171901	1.11783	0.508008	1.35242	0.0399499	0.0914455	3.73198e-10	-0.325919	0.608607	0.777495	
172561	1.11255	0.52908	1.34385	0.0129989	0.0447864	-6.2535e-11	-0.210337	0.536474	-0.1895	
172621	1.11354	0.525895	1.34498	0.0077508	0.0402329	1.25434e-11	-0.197951	0.528774	0.0190052	
172741	1.10034	0.544094	1.33869	0.0242856	0.0443477	-1.08833e-11	-0.226283	0.583352	-0.0403084	
172801	1.08965	0.53228	1.33813	0.00226888	0.0430855	5.38134e-11	-0.235984	0.506354	0.179378	
172861	1.07961	0.52729	1.33692	0.0158809	0.0538312	4.76809e-11	-0.212885	0.542964	0.317873	
172922	1.05935	0.517119	1.34358	0.0117344	0.0562562	1.7738e-10	-0.344256	0.451523	0.347804	
172982	1.05147	0.512436	1.34303	0.00650716	0.0496322	1.20539e-10	-0.336342	0.593979	0.365269	
173131	1.06221	0.533645	1.20036	-0.000319358	0.0449503	2.82455e-11	-0.246569	0.548681	0.235379	
173222	1.06448	0.529537	1.21421	-0.00171964	0.0458271	1.72668e-10	-0.102593	0.539965	0.302927	
173251	1.06448	0.529537	1.21421	0.00219581	0.0462847	3.46068e-11	-0.278346	0.551215	0.164794	
173551	1.07413	0.56632	0.983617	-0.000510583	0.0370872	4.71723e-11	-0.207735	0.504873	0.314482	
173702	1.06127	0.686662	0.802125	-0.00964169	0.0373603	1.77719e-10	-0.240727	0.469235	0.32911	
173852	1.0585	0.725782	0.669118	-0.0232978	0.00506884	5.81085e-11	-0.158658	0.45664	0.193695	
173911	1.06966	0.731456	0.658981	-0.015539	0.010111	7.92809e-12	-0.0941763	0.508302	0.132135	
174001	1.08308	0.715792	0.545259	-0.039464	0.000590748	2.47247e-10	-0.256615	0.416379	0.316983	
174151	1.06713	0.698743	0.494447	-0.0365027	-0.0103337	1.89541e-11	-0.249616	0.44688	0.126361	
174361	1.07846	0.695201	0.491502	-0.0479922	-0.0226702	5.84001e-11	-0.18391	0.407137	0.243334	
174452	1.09928	0.695659	0.487791	-0.0534731	-0.0227544	1.55218e-11	-0.187613	0.423349	0.0369567	
174662	1.10266	0.689836	0.503754	-0.0687964	-0.0373668	4.95398e-11	-0.183673	0.423936	0.0786345	
174722	1.10294	0.689877	0.501297	-0.069419	-0.0417479	-3.95361e-12	-0.228872	0.521548	-0.0109822	
174781	1.11191	0.680467	0.512338	-0.0640779	-0.0469366	4.38129e-11	-0.0951148	0.437394	0.243405	
175172	1.16059	0.665049	0.513783	-0.0726716	-0.0698861	3.89562e-11	-0.0374552	0.56724	0.162318	
176341	1.28323	0.608339	0.522039	-0.0322385	-0.0344149	8.27893e-11	-0.0642524	0.536894	0.21228	
176672	1.28541	0.593119	0.511008	0.0104742	0.101122	1.08464e-10	-0.305683	0.423252	0.241032	
177031	1.27886	0.628845	0.51951	0.0428351	0.275391	3.61137e-11	-0.320949	0.576502	0.120379	
177062	1.27886	0.628845	0.51951	0.0384768	0.30034	3.89389e-11	-0.18916	0.596513	0.0927117	
177121	1.27226	0.645326	0.512903	0.0443604	0.331834	4.71174e-11	-0.411952	0.643145	0.130882	
177361	1.23157	0.757074	0.493488	0.0617756	0.466133	1.67707e-11	-0.341218	0.56007	0.279511	
178262	1.09773	1.3082	0.41629	0.0163065	0.744087	3.62065e-11	-0.669136	0.414715	0.30172	
178441	1.07099	1.56946	0.401734	-0.0061954	0.757367	1.70736e-10	-0.394417	0.513215	0.474266	
178591	1.0447	1.61203	0.393654	-0.00643446	0.760511	5.78679e-11	-0.551427	0.540631	0.175357	
178831	0.972736	1.87311	0.375896	-0.0332571	0.733113	7.81245e-11	-0.516912	0.470411	0.236741	
178892	0.995327	1.91585	0.385012	-0.0218401	0.61617	9.29052e-11	-0.69277	0.602718	0.238218	
179131	1.02487	2.29713	0.345107	-0.0576457	0.497591	1.09998e-10	-0.664708	0.357938	0.229163	
179282	1.00979	2.41533	0.330058	-0.0983141	0.531581	6.8417e-11	-0.700557	0.412593	0.228057	
179311	1.00979	2.41533	0.330058	-0.12278	0.523767	8.35377e-11	-0.692125	0.490878	0.278459	
179342	1.00979	2.41533	0.330058	-0.12312	0.526034	6.76432e-11	-0.65439	0.470568	0.173444	
179582	1.05182	2.68223	0.323521	-0.177953	0.423273	1.3992e-10	-0.382245	0.492971	0.333143	
179701	1.05738	2.74369	0.313492	-0.140044	0.305972	8.488e-12	-0.338609	0.393531	0.282933	
179761	1.09555	2.79101	0.332297	-0.124712	0.256139	4.06039e-11	-0.274059	0.500579	0.338365	
179912	1.05483	2.8499	0.318936	-0.0395125	0.0875685	1.28869e-10	-0.0786019	0.504339	0.214782	
180121	1.05873	2.86333	0.350815	-0.018824	0.0160945	1.66043e-10	-0.270871	0.401814	0.240642	
180211	1.08881	2.87398	0.33397	-0.0215154	0.00291728	1.36903e-11	-0.164381	0.483973	0.0507047	
180301	1.10004	2.88603	0.33288	-0.0193741	0.000633847	8.2061e-11	-0.262518	0.446159	0.143967	
180362	1.12328	2.90545	0.339956	-0.0206215	-0.00439014	1.41336e-10	-0.270533	0.444704	0.214145	
180391	1.12328	2.90545	0.339956	-0.0181035	-0.00502027	5.40072e-11	-0.0849675	0.524564	0.090012	
180422	1.12328	2.90545	0.339956	-0.0184995	-0.00115256	6.93538e-11	-0.275527	0.458542	0.17783	
180571	1.14586	2.9356	0.336391	-0.0246591	0.002931	5.21215e-11	-0.201263	0.44632	0.157944	
180631	1.15688	2.94122	0.329443	-0.0178438	0.00175816	3.26166e-11	-0.226838	0.463865	0.181203	
181022	1.15739	2.94462	0.333118	-0.0216514	0.00258735	1.0565e-10	-0.201621	0.41586	0.251548	
181231	1.15763	2.95703	0.329205	0.00822439	-0.0706708	8.12831e-11	-0.128947	0.585473	0.301049	
181321	1.17795	2.96527	0.330726	-0.250801	0.78114	-0.0887545	5.62982e+08	2.29036e+08	-8.39664e+07	
181651	1.19515	2.92196	0.332095	-0.043677	-0.130497	1.45045e-10	-0.131253	0.406131	0.268601	
181681	1.19515	2.92196	0.332095	-0.0410449	-0.124135	5.06959e-12	-0.269029	0.484985	0.0129989	
181711	1.19515	2.92196	0.332095	-0.0511602	-0.129127	8.39966e-11	-0.0627026	0.52035	0.233324	
181891	1.27426	2.90445	0.343972	-0.0793124	-0.139542	1.30914e-10	-0.18549	0.540911	0.218189	
182222	1.33873	2.79965	0.344465	-0.130799	-0.176317	3.32741e-10	-0.00867724	0.28064	0.443655	
182311	1.3468	2.77172	0.352322	-0.121703	-0.16555	3.74472e-11	-0.0475305	0.512798	0.124824	
182701	1.38951	2.68255	0.359342	-0.114471	-0.189164	2.51291e-11	-0.256047	0.484397	0.0837637	
182762	1.38739	2.6625	0.353156	-0.125981	-0.160657	7.6102e-11	-0.0800451	0.486495	0.211394	
182881	1.40924	2.64779	0.358791	-0.115065	-0.181168	1.94867e-10	-0.0553807	0.372627	0.282415	
183031	1.46449	2.62716	0.36971	-0.0895583	-0.119954	3.28664e-12	-0.043672	0.501574	0.0547773	
183182	1.47376	2.60016	0.383612	0.406626	0.451747	0.581745	1.91309e+08	1.67142e+08	3.72534e+08	
183211	1.47376	2.60016	0.383612	-0.064017	-0.062586	1.53567e-10	-0.234629	0.347811	0.426574	
183362	1.48177	2.55956	0.37747	-0.0225644	-0.028131	7.04187e-11	-0.0980268	0.395982	0.21339	
183722	1.4731	2.53081	0.375992	-0.0042467	0.0114049	6.4351e-11	-0.145603	0.391267	0.102144	
183781	1.46972	2.53125	0.375585	-0.00551367	0.0150996	1.76644e-11	-0.294203	0.515866	0.117763	
183841	1.48137	2.53664	0.381766	-0.0016626	0.0171832	3.52435e-11	-0.191158	0.307242	0.391594	
184292	1.46901	2.50943	0.382886	0.00716627	0.0228792	3.52284e-11	-0.212733	0.475015	0.0978567	
184531	1.4725	2.52499	0.382457	0.00514629	0.0116684	5.89841e-11	-0.0711981	0.389763	0.393227	
184651	1.46183	2.51933	0.38303	0.0121236	0.0129125	9.98593e-11	-0.209967	0.436716	0.25605	
184711	1.4557	2.51835	0.382899	0.0119913	0.0159508	9.29236e-11	-0.233154	0.511312	0.147498	
184892	1.44647	2.4787	0.378976	0.0254584	0.0241231	7.03828e-11	-0.221051	0.482162	0.213281	
184951	1.4515	2.51348	0.377747	0.0314321	0.0333723	1.04645e-10	-0.219663	0.645051	0.193788	
184981	1.4515	2.51348	0.377747	0.0273746	0.0403794	7.13957e-11	-0.185809	0.480505	0.264429	
185011	1.4515	2.51348	0.377747	0.0350555	0.0411535	1.30091e-11	-0.250041	0.59156	0.216818	
185522	1.41566	2.51094	0.372387	0.0395767	0.0575207	1.69726e-11	-0.050577	0.523512	0.080822	
185611	1.41028	2.51894	0.364947	0.0310492	0.0514311	8.65364e-11	-0.2052	0.606263	0.169679	
185731	1.40196	2.52675	0.365042	0.0231037	0.0488486	4.30526e-11	-0.17775	0.510851	0.239181	
185911	1.39867	2.55314	0.359498	0.0271053	0.0521938	7.90087e-11	-0.159525	0.555961	0.164601	
185941	1.39867	2.55314	0.359498	0.0190649	0.0576035	1.68586e-10	-0.142046	0.475937	0.312197	
186212	1.37736	2.53858	0.342974	0.0112133	0.0590869	6.00136e-11	-0.207745	0.481865	0.285779	
186331	1.38526	2.55492	0.343497	-0.00369047	0.0694844	-2.43548e-13	-0.334272	0.487867	-0.000624483	
186601	1.37987	2.58964	0.337468	-0.00838163	0.0665183	9.09418e-11	-0.24673	0.483648	0.233184	
187501	1.40431	2.64618	0.33567	-0.00479879	0.0301758	4.30915e-11	-0.247086	0.521018	0.0897741	
188011	1.43922	2.68939	0.339467	-0.0241928	0.0100182	1.69028e-10	-0.168398	0.364346	0.375617	
188041	1.43922	2.68939	0.339467	-0.0240797	0.00849934	7.14536e-11	-0.225835	0.436078	0.238179	
188072	1.43922	2.68939	0.339467	-0.011082	0.01454	1.28576e-10	-0.152357	0.455958	0.329683	
188132	1.46235	2.70944	0.336209	-0.0191907	0.0128496	3.17027e-11	-0.273403	0.508481	0.0528378	
188161	1.46235	2.70944	0.336209	-0.0263326	0.00857954	4.31851e-11	-0.147107	0.460234	0.159945	
188191	1.46235	2.70944	0.336209	-0.0143739	0.00788218	4.27581e-11	-0.116325	0.506253	0.20361	
188221	1.46235	2.70944	0.336209	-0.0148501	0.0115978	1.29712e-11	-0.244619	0.548593	0.0393067	
188252	1.46235	2.70944	0.336209	-0.0168734	0.00729178	1.37135e-11	-0.210403	0.55546	0.0457118	
188281	1.46235	2.70944	0.336209	-0.00797669	0.0072829	1.14798e-10	-0.27746	0.452748	0.2014	
188402	1.44958	2.7346	0.333861	-0.013423	0.00840974	1.14614e-10	-0.214045	0.459405	0.318371	
188702	1.46115	2.75256	0.337081	-0.00954446	3.84097e-05	1.40275e-10	-0.151894	0.461205	0.246096	
188732	1.46115	2.75256	0.337081	-0.00972782	0.00149064	1.45751e-10	-0.251988	0.477426	0.269909	
188852	1.46756	2.75106	0.340042	-0.0139729	0.000462525	2.58729e-11	-0.18676	0.527378	0.0431215	
189002	1.48069	2.75988	0.343906	-0.00493567	-0.00130707	1.43259e-10	-0.124871	0.422256	0.159176	
189032	1.48069	2.75988	0.343906	-0.00903766	0.00662696	7.42965e-11	-0.247875	0.529093	0.206379	
189091	1.48947	2.76637	0.345885	-0.00210184	0.00378367	4.08362e-11	-0.135845	0.524961	0.090747	
189181	1.49777	2.76589	0.344433	-0.0031502	0.0033088	7.25108e-11	-0.130508	0.634113	0.21973	
189331	1.48756	2.75995	0.340772	0.0785829	-0.348237	-0.0954371	-9.60911e+07	1.0392e+08	-1.04672e+07	
189482	1.49462	2.76622	0.342336	-0.0123922	0.00871708	-1.32383e-12	-0.149327	0.472942	-0.00735463	
189572	1.48939	2.75313	0.342627	-0.00648418	0.00793783	6.98058e-11	-0.220785	0.530968	0.232686	
189721	1.48742	2.75459	0.340256	-0.0102067	0.00943711	1.08401e-10	-0.167314	0.557126	0.240891	
190142	1.48818	2.75808	0.341714	-0.00591615	0.00423072	6.88494e-11	-0.258778	0.535755	0.134999	
190321	1.49335	2.76797	0.345105	-0.504663	0.201989	0.0786645	1.22932e+08	3.40395e+08	-1.62107e+07	
190351	1.49335	2.76797	0.345105	-0.00561574	-0.0135106	9.03375e-11	-0.215429	0.451158	0.20075	
190561	1.5108	2.76263	0.347391	0.00360652	-0.0245879	-8.82064e-12	-0.215028	0.505697	-0.0113085	
190592	1.5108	2.76263	0.347391	0.00684304	-0.026556	3.56297e-12	-0.233901	0.451849	0.0107969	
190801	1.50351	2.77177	0.345197	0.0444687	-0.028459	1.11746e-11	-0.170042	0.527871	0.016195	
190862	1.50764	2.75481	0.347085	0.0566487	-0.0337637	7.14231e-11	-0.238459	0.549599	0.158718	
190922	1.50822	2.75442	0.347154	0.0677389	-0.0282817	2.20886e-10	-0.184425	0.433348	0.334675	
191012	1.51234	2.78298	0.343463	0.0988759	-0.0412015	9.12648e-11	-0.124454	0.47471	0.217297	
191162	1.50436	2.77908	0.345219	0.130555	-0.0353164	5.4695e-11	-0.180568	0.638284	0.151931	
191251	1.50206	2.78149	0.34538	0.14827	-0.0405963	1.56789e-10	-0.177607	0.551173	0.248872	
191282	1.50206	2.78149	0.34538	0.176252	-0.0396846	1.52896e-10	-0.152354	0.573026	0.212356	
191341	1.48293	2.73158	0.338807	0.21662	-0.0296394	3.60554e-11	-0.183794	0.607511	0.150231	
191371	1.48293	2.73158	0.338807	0.225811	-0.0339961	5.68553e-11	-0.334321	0.538163	0.236897	
191432	1.45145	2.76637	0.328614	0.195998	-0.0304018	8.44264e-11	-0.13726	0.640273	0.175888	
191642	1.3507	2.73742	0.312553	0.274173	-0.011441	-2.41149e-12	-0.109529	0.601717	-0.00502393	
191672	1.3507	2.73742	0.312553	0.279865	-0.0168644	1.65694e-11	-0.341945	0.554619	0.0920521	
193261	0.865627	2.82257	0.241173	0.0824011	0.0984986	1.68245e-10	-0.264167	0.527451	0.243834	
193322	0.867996	2.82766	0.23665	0.0685925	0.0998078	2.44633e-10	-0.201759	0.498221	0.370656	
193411	0.848437	2.84048	0.230176	0.0505177	0.109514	7.60762e-11	-0.196154	0.575724	0.253587	
193891	0.821556	2.88657	0.215138	-0.0890629	0.0937429	4.9401e-11	-0.1879	0.397187	0.235243	
194402	0.915851	2.94118	0.232467	-0.234817	0.0543313	2.4063e-11	-0.343799	0.323383	0.133683	
194492	0.942191	2.93945	0.227382	-0.253456	0.0412953	3.51159e-11	-0.201734	0.437316	0.043353	
194522	0.942191	2.93945	0.227382	-0.245927	0.0424422	1.34348e-11	-0.263161	0.311377	0.074638	
194581	0.984865	2.95141	0.248201	-0.242246	0.0384597	2.08572e-10	-0.142114	0.24611	0.289684	
194612	0.984865	2.95141	0.248201	-0.261446	0.0211696	1.47563e-11	-0.234467	0.45803	0.163959	
194701	1.03407	2.95428	0.255017	-0.254906	0.0115007	3.04116e-11	-0.224897	0.336844	0.202744	
195001	1.13138	2.95499	0.274454	-0.240289	-0.0280588	3.19626e-13	-0.281576	0.410464	0.00152203	
195062	1.13936	2.9539	0.275238	-0.233436	-0.0266255	-1.65798e-11	-0.11539	0.395153	-0.046055	
195151	1.16471	2.95025	0.279648	0.145562	0.556327	0.13462	1.70037e+08	-3.03164e+07	2.65233e+07	
195271	1.18695	2.94877	0.280171	-0.154826	-0.0701683	3.4251e-11	-0.144135	0.331933	0.103791	
195362	1.21639	2.9456	0.286742	-0.104895	-0.0841012	1.09219e-10	-0.189424	0.452721	0.158289	
195392	1.21639	2.9456	0.286742	-0.10429	-0.0897925	5.6486e-11	-0.180705	0.45212	0.125525	
195782	1.27368	2.88332	0.271353	-0.0318884	-0.0553014	8.3315e-11	-0.164689	0.512069	0.185144	
195842	1.28052	2.87853	0.271524	-0.0195905	-0.0498853	3.70743e-11	-0.277316	0.45235	0.123581	
195901	1.28025	2.87231	0.263931	-0.0356063	-0.0543607	4.08726e-11	-0.262574	0.462375	0.340605	
195932	1.28025	2.87231	0.263931	-0.0277024	-0.0454688	1.70062e-10	-0.207221	0.419949	0.283436	
196171	1.30528	2.85252	0.261399	-0.0152527	-0.0260842	7.77295e-11	-0.266984	0.534024	0.199306	
196201	1.30528	2.85252	0.261399	-0.0184018	-0.0245658	1.18861e-10	-0.206769	0.470409	0.360186	
196322	1.30324	2.84605	0.259679	-0.014914	-0.0107108	1.42655e-10	-0.192561	0.430302	0.339654	
196382	1.30779	2.84822	0.25744	-0.00512136	-0.00864856	4.10216e-11	-0.260686	0.413714	0.341846	
196621	1.30626	2.83212	0.260935	0.0139604	0.013991	5.76035e-11	-0.299517	0.535931	0.137151	
196711	1.30742	2.8133	0.263473	0.0116892	0.0162337	1.88553e-10	-0.0933209	0.407472	0.216727	
196861	1.31184	2.81415	0.270305	0.022149	0.0216659	7.32473e-12	-0.270979	0.543038	0.122079	
196952	1.28928	2.81133	0.266436	0.0214853	0.0235649	6.53949e-11	-0.158166	0.519906	0.198166	
196982	1.28928	2.81133	0.266436	0.019166	0.0174428	2.45368e-11	-0.175685	0.470996	0.136316	
197041	1.31077	2.82626	0.265175	0.0389309	0.0137419	-2.2314e-12	-0.29318	0.514534	-0.0247934	
197102	1.28616	2.81197	0.266274	0.0466306	0.00871575	-1.63704e-11	-0.30954	0.551508	-0.0202103	
197162	1.27569	2.78805	0.263868	0.054046	0.0126673	8.48665e-11	-0.207123	0.350166	0.108803	
197312	1.27756	2.81578	0.265242	0.113595	-0.00245917	4.04246e-11	-0.229828	0.380702	0.192498	
197371	1.27533	2.82514	0.258399	0.143852	-0.00612843	2.92612e-11	-0.307572	0.434688	0.243843	
197461	1.24614	2.81718	0.259473	0.165353	-0.00922213	1.14732e-10	-0.1827	0.631897	0.201285	
197612	1.20449	2.82193	0.244721	0.267687	-0.02187	1.37502e-10	-0.244167	0.56617	0.208337	
197642	1.20449	2.82193	0.244721	0.286067	-0.0180178	1.39692e-10	-0.0755957	0.543806	0.358184	
197702	1.17259	2.82513	0.241745	0.302376	-0.0215791	2.05348e-10	-0.166874	0.5855	0.228165	
197822	1.13066	2.82787	0.231533	0.348219	-0.0237353	1.41348e-10	-0.223008	0.765222	0.294476	
197881	1.10361	2.81787	0.230287	0.359264	-0.0270928	1.26564e-10	-0.180959	0.617143	0.248164	
197911	1.10361	2.81787	0.230287	0.366481	-0.0175479	6.82808e-11	-0.187462	0.715991	0.142252	
197971	1.04993	2.82033	0.212912	0.395367	-0.0205013	3.92913e-11	-0.197723	0.610466	0.327428	
198091	0.988437	2.80441	0.216682	0.447757	-0.0076234	1.42568e-10	-0.213744	0.576232	0.339448	
198211	0.936385	2.83761	0.213968	0.44028	0.00184684	9.13161e-11	-0.172057	0.757643	0.217419	
198241	0.936385	2.83761	0.213968	0.46567	0.0117846	8.79144e-11	-0.138908	0.770041	0.195365	
198601	0.67465	2.89905	0.189338	0.500388	0.0739077	7.47583e-12	-0.149836	0.8214	0.0155746	
198691	0.602959	2.96059	0.215839	-4.09797	-2.10625	0.687102	-1.34326e+09	2.28931e+09	4.24905e+08	
198751	0.582596	2.98295	0.20933	-3.82632	-8.29928	0.728065	-8.03669e+08	8.82493e+08	-2.56898e+08	
198932	0.50275	3.02319	0.231095	0.309489	0.137582	8.20002e-12	-0.0503294	0.659418	0.0227778	
198991	0.479217	3.02681	0.218181	0.25695	0.142726	4.18594e-11	-0.180262	0.665966	0.126847	
199021	0.479217	3.02681	0.218181	0.243415	0.155406	6.83612e-11	-0.160217	0.578695	0.134042	
199051	0.479217	3.02681	0.218181	0.229723	0.161479	5.35122e-11	-0.196141	0.676531	0.148645	
199112	0.429157	3.0756	0.20466	0.16917	0.139807	3.08114e-12	-0.217506	0.620948	0.0342349	
199891	0.290117	3.18223	0.153603	0.00463583	0.0649212	1.63826e-11	-0.112709	0.465684	0.182029	
199982	0.282171	3.18059	0.155377	0.00240303	0.04902	2.65353e-11	-0.23526	0.512949	0.110564	
200041	0.299277	3.20041	0.156783	0.00143833	0.0369035	3.373e-11	-0.173742	0.4531	0.102212	
200131	0.295356	3.19574	0.159245	0.0206557	0.030161	1.37927e-10	-0.169475	0.532313	0.176829	
200191	0.283707	3.20228	0.161479	0.00935527	0.0243211	1.39638e-10	-0.1432	0.573714	0.358046	
200221	0.283707	3.20228	0.161479	0.00126001	0.020295	1.51705e-10	-0.0722544	0.664683	0.202273	
200282	0.279534	3.21142	0.155163	0.00254561	0.00908484	8.41213e-11	-0.125998	0.394101	0.254913	
200312	0.279534	3.21142	0.155163	0.00849502	0.000416335	6.41904e-11	-0.162077	0.453427	0.194516	
200371	0.290668	3.20866	0.15209	-0.0055308	0.000442772	7.00077e-11	0.0416467	0.365645	0.33337	
200431	0.290505	3.28774	0.159672	-0.0132581	0.0016219	3.72154e-11	-0.250654	0.492287	0.177216	
201061	0.339136	3.23294	0.164712	-0.17175	-0.181717	4.13177e-11	-0.0751336	0.413638	0.0860786	
201151	0.347255	3.20368	0.174819	-0.167006	-0.209063	1.96359e-11	0.0389745	0.303963	0.0436354	
201181	0.347255	3.20368	0.174819	-0.194897	-0.213697	6.86033e-12	-0.145101	0.338178	0.0285847	
202172	0.62477	2.67766	0.207578	-0.190072	-0.398723	2.66575e-11	0.12605	0.276241	0.296194	
202261	0.664224	2.59032	0.215757	-0.157312	-0.410024	2.22261e-11	0.105747	0.226601	0.246957	
202322	0.686894	2.54179	0.224743	-0.10764	-0.390467	9.35621e-11	0.0190551	0.271581	0.311874	
202351	0.686894	2.54179	0.224743	-0.0840129	-0.393805	3.29224e-11	-0.026681	0.381854	0.274354	
202562	0.720892	2.37149	0.226819	-0.056709	-0.341682	3.12878e-11	0.0292029	0.490509	0.0948114	
203071	0.758821	2.11297	0.267646	0.00650412	-0.100326	-4.23968e-11	-0.233826	0.393112	-0.141323	
203521	0.726434	1.98738	0.287934	-0.00861068	-0.0342538	5.72345e-11	-0.295271	0.468177	0.21198	
203672	0.732886	1.98593	0.289705	-0.00862199	-0.0281807	5.37349e-11	-0.317843	0.43123	0.0995091	
204092	0.723772	1.97618	0.286721	-0.00532989	0.00383344	1.22119e-10	-0.205471	0.375445	0.203532	
204181	0.717508	1.98718	0.277197	-0.00194905	-0.00823872	2.3819e-11	-0.380268	0.324674	0.198492	
204242	0.719866	1.97139	0.281755	0.0127387	0.0235723	2.2194e-12	-0.187027	0.492692	0.02466	
204391	0.714819	1.96136	0.27689	-0.001756	0.06072	6.09483e-11	-0.292637	0.389881	0.184692	
204422	0.714819	1.96136	0.27689	0.000673223	0.0652567	7.43049e-11	-0.269447	0.370587	0.225166	
204452	0.714819	1.96136	0.27689	-0.010068	0.0834388	1.07103e-10	-0.0649417	0.468996	0.274623	
204481	0.714819	1.96136	0.27689	-0.00976171	0.0867735	6.51532e-11	-0.318304	0.288225	0.271472	
204932	0.714864	1.98233	0.261732	0.0246475	0.171793	1.69415e-11	-0.374225	0.349651	0.112944	
204991	0.709334	1.99833	0.26007	0.0266518	0.173621	2.19829e-11	-0.41681	0.515586	0.10468	
205261	0.708902	2.08914	0.253732	0.0191963	0.180513	6.87464e-12	-0.430564	0.524892	0.0286443	
205292	0.708902	2.08914	0.253732	0.0175775	0.168469	3.28286e-11	-0.311601	0.471346	0.121588	
205351	0.70547	2.11297	0.247077	0.0148418	0.169676	4.8219e-12	-0.484738	0.521051	0.0229614	
205531	0.698336	2.155	0.228749	-0.950872	-0.259373	-0.682348	-1.42076e+08	4.33323e+08	-1.349e+08	
205861	0.680142	2.23573	0.212387	0.0252211	0.0679073	6.67063e-11	-0.423448	0.389011	0.185295	
205891	0.680142	2.23573	0.212387	0.0222836	0.0542628	4.65301e-11	-0.2429	0.575172	0.1551	
206132	0.67056	2.24974	0.202639	0.00705928	-0.0093104	3.86487e-11	-0.31408	0.545724	0.161036	
206221	0.66641	2.2528	0.202778	-0.0011323	-0.0175747	2.22405e-11	-0.318467	0.513844	0.0673956	
206402	0.67584	2.25013	0.211467	-0.00486004	-0.0297197	1.86074e-10	-0.179295	0.410007	0.477112	
206702	0.682231	2.24391	0.223584	-0.0101156	-0.0423805	6.50307e-11	-0.306717	0.476631	0.216769	
207031	0.69944	2.21253	0.228834	-0.00878405	-0.0465568	6.26554e-11	-0.187433	0.453816	0.261064	
207121	0.685601	2.21284	0.225864	-0.0394985	-0.785682	-0.118545	-5.46744e+08	8.84963e+07	-6.38114e+07	
207271	0.702295	2.19339	0.229133	-0.00932691	-0.0301812	3.43769e-11	-0.257692	0.478558	0.0954915	
207511	0.703173	2.17331	0.226975	-0.0169689	-0.0276419	2.11091e-11	-0.266738	0.474697	0.140727	
207752	0.691047	2.12943	0.22005	-0.00495512	-0.0171823	7.25279e-11	-0.40028	0.478689	0.109891	
207961	0.707272	2.12531	0.228803	7.25082	0.274362	0.465421	-4.12725e+07	-2.23449e+09	1.08961e+08	
208022	0.714079	2.12087	0.227946	-0.074697	-0.0170152	3.14827e-11	-0.297351	0.397564	0.174904	
208171	0.735212	2.11525	0.233338	-0.123021	-0.0248557	2.10019e-10	-0.101413	0.276794	0.43754	
208202	0.735212	2.11525	0.233338	-0.16664	-0.0123839	2.95566e-11	-0.244924	0.331488	0.328407	
208352	0.765684	2.10146	0.237318	-0.240119	-0.0215384	4.02107e-11	-0.362529	0.282493	0.111696	
208562	0.81313	2.08856	0.251111	-0.322628	-0.0294551	2.51442e-11	-0.192252	0.106507	0.419071	
209041	1.04354	2.01619	0.285051	-0.409163	-0.0804777	8.57576e-13	-0.297532	0.279358	0.00238216	
209282	1.20227	1.97512	0.328402	-0.490211	-0.162941	-3.74465e-11	-0.0679405	0.312741	-0.0542703	
209402	1.25691	1.94939	0.326387	-0.620992	-0.19174	-2.48103e-11	-0.207694	0.0696752	-0.0486477	
209461	1.36611	1.92355	0.341516	-0.61774	-0.176772	2.28375e-11	-0.322443	0.1465	0.03045	
209582	1.43933	1.90916	0.349246	-0.669362	-0.199068	9.89399e-11	-0.153296	0.0711742	0.253692	
210001	1.82931	1.7999	0.372898	-0.84219	-0.110025	5.06073e-11	-0.105626	0.0945527	0.281152	
210361	2.17956	1.74702	0.411789	-0.649365	-0.0821171	5.52989e-11	-0.159066	0.0644169	0.167572	
210541	2.31238	1.7182	0.420572	-0.531807	-0.0820183	5.71477e-11	-0.211249	0.0476553	0.158744	
210812	2.50865	1.67582	0.427942	-0.408613	-0.0950417	7.81169e-11	-0.192944	0.161206	0.371985	
210871	2.54493	1.67748	0.434824	-0.380858	-0.0949686	1.16779e-10	-0.197456	0.156615	0.278045	
210931	2.58586	1.64875	0.43999	-0.384877	-0.0959033	9.77864e-11	-0.232897	0.344254	0.125367	
211051	2.63169	1.63508	0.446344	-0.322339	-0.0899158	4.81662e-11	-0.208157	0.231606	0.229363	
211592	2.83572	1.5457	0.467483	-0.0604342	0.0155705	6.98936e-11	-0.239273	0.363855	0.232979	
211892	2.85311	1.56228	0.47193	0.0606467	0.116297	8.81342e-11	-0.320864	0.474195	0.163212	
212371	2.73736	1.65934	0.421815	0.300935	0.191892	4.62483e-11	-0.413523	0.66002	0.256935	
212582	2.65878	1.70284	0.404229	0.366022	0.23781	2.34811e-11	-0.339252	0.593567	0.111815	
212642	2.60552	1.73183	0.399925	0.381686	0.233209	1.41364e-10	-0.344907	0.704877	0.174524	
212821	2.49622	1.76334	0.40454	0.449588	0.171237	2.90651e-11	-0.473053	0.689868	0.121105	
213001	2.39661	1.80629	0.378632	0.536853	0.166928	1.29551e-11	-0.332103	0.612058	0.0479817	
213062	2.34388	1.82452	0.380803	0.549038	0.17603	5.09459e-11	-0.329272	0.714125	0.212274	
213421	2.08288	1.90928	0.349283	0.617824	0.229531	6.13021e-11	-0.392655	0.495662	0.291915	
213571	1.94733	1.93719	0.341893	0.636406	0.252533	2.61999e-11	-0.351845	0.656411	0.109166	
214201	1.54622	2.08341	0.316029	0.153032	0.00222647	7.53511e-11	-0.366886	0.560013	0.156981	
214262	1.53408	2.08552	0.314953	0.103064	-0.0219234	7.73973e-11	-0.166131	0.448295	0.257991	
214531	1.47177	2.09379	0.265585	0.0313816	-0.0462798	9.44446e-11	-0.362438	0.439068	0.157408	
214621	1.4612	2.09691	0.263566	0.0155161	-0.0384596	3.8064e-11	-0.193234	0.569042	0.105733	
214681	1.44122	2.08914	0.260936	0.0194669	-0.0392236	-7.63342e-12	-0.236511	0.416227	-0.0127224	
214711	1.44122	2.08914	0.260936	0.00631954	-0.0344783	4.25012e-11	-0.244915	0.509976	0.118059	
214801	1.43742	2.07389	0.258567	0.0238646	-0.0231366	3.27958e-11	-0.269533	0.299146	0.182199	
214832	1.43742	2.07389	0.258567	0.0219787	-0.0145333	8.01471e-11	-0.253865	0.400176	0.166973	
214862	1.43742	2.07389	0.258567	0.0219787	-0.0145333	2.30423e-10	-0.253865	0.400176	0.166973	
214891	1.43742	2.07389	0.258567	0.0116074	-0.0207637	1.16118e-10	-0.277485	0.393301	0.27647	
215761	1.45479	1.98985	0.261577	-0.121972	-0.0834849	1.19779e-10	-0.206402	0.360001	0.266175	
215852	1.45862	1.97275	0.256583	-0.156419	-0.0923914	4.86753e-11	-0.255567	0.340244	0.0811254	
216151	1.57553	1.97257	0.27248	-0.351176	-0.121142	7.00089e-11	-0.237711	0.25917	0.166688	
216211	1.58757	1.97031	0.280135	-0.363951	-0.138145	8.79714e-13	-0.202835	0.227657	0.0293238	
216302	1.61462	1.95957	0.283639	-0.407959	-0.108924	3.91479e-11	-0.162987	0.131769	0.100379	
216331	1.61462	1.95957	0.283639	-0.407959	-0.108924	1.29489e-10	-0.162987	0.131769	0.100379	
216422	1.62816	1.91247	0.277178	-0.470662	-0.112356	3.09504e-11	-0.12308	0.180457	0.0573156	
216511	1.70495	1.89529	0.292428	-0.539756	-0.0535148	-3.64094e-12	-0.192972	0.268446	-0.00606824	
216571	1.72048	1.89518	0.288095	-0.590122	-0.0367192	6.08877e-11	-0.12923	0.0403684	0.338265	
216932	2.01114	1.86126	0.312103	-0.722652	0.0451125	1.02452e-10	-0.337334	0.209002	0.28459	
217201	2.22336	1.85697	0.330401	-0.747273	0.0947987	2.5542e-10	-0.303044	-0.0271628	0.473	
217261	2.25454	1.85463	0.333484	-0.749603	0.0955574	4.26066e-11	-0.320251	0.157381	0.355055	
217321	2.30092	1.84905	0.336571	-0.759709	0.0991285	2.18724e-10	-0.282428	0.141949	0.405045	
217981	2.94188	1.9463	0.39591	-0.564537	0.134969	1.09477e-10	-0.489386	0.120585	0.260658	
218011	2.94188	1.9463	0.39591	-0.528575	0.142953	8.99432e-11	-0.305914	0.103211	0.272555	
218071	3.04189	1.97905	0.402414	-0.489829	0.154798	7.99399e-11	-0.253131	0.385419	0.204974	
218101	3.04189	1.97905	0.402414	-0.48717	0.164757	9.61808e-11	-0.394314	0.219611	0.320603	
218251	3.14372	2.00301	0.402186	-0.371506	0.130639	9.53234e-11	-0.273843	0.314355	0.35305	
218372	3.22893	2.04565	0.409182	-0.342456	0.154074	1.33474e-10	-0.419817	0.225787	0.404468	
219692	3.31628	2.37844	0.376042	0.323293	0.116046	2.07655e-11	-0.32758	0.828789	0.173046	
219721	3.31628	2.37844	0.376042	0.325051	0.115536	1.95316e-10	-0.266177	0.714473	0.24113	
220111	3.03075	2.45677	0.335888	0.57629	0.17423	1.34577e-10	-0.293166	0.673773	0.560739	
220201	2.97917	2.45752	0.314263	0.634416	0.208376	1.46438e-10	-0.254324	0.821827	0.443753	
220231	2.97917	2.45752	0.314263	0.634416	0.208376	5.45816e-10	-0.254324	0.821827	0.443753	
220352	2.8672	2.48416	0.291635	0.590228	0.242168	9.12131e-11	-0.359836	0.774631	0.304044	
220382	2.8672	2.48416	0.291635	0.632029	0.246477	1.38318e-10	-0.308586	0.821089	0.512287	
220592	2.56579	2.5223	0.242268	0.611871	0.253413	6.67156e-11	-0.203483	0.913105	0.317693	
220622	2.56579	2.5223	0.242268	0.624449	0.25264	9.86507e-11	-0.31261	0.810397	0.411045	
220801	2.38844	2.51758	0.246718	0.597088	0.172948	7.29724e-11	-0.269436	0.881068	0.162161	
220861	2.37034	2.55622	0.264058	0.585329	0.128335	4.05475e-11	-0.198155	1.00815	0.0965416	
221042	2.24729	2.60351	0.245868	0.373612	0.0722993	7.55472e-11	-0.216773	0.588368	0.228931	
221522	2.16957	2.69788	0.228419	-0.00912967	-0.0299528	2.86221e-10	-0.197691	0.415735	0.433668	
221551	2.16957	2.69788	0.228419	-0.0208655	-0.0178351	4.84895e-11	-0.192823	0.406572	0.269386	
221581	2.16957	2.69788	0.228419	-0.0335514	-0.0190925	4.13742e-11	-0.103715	0.520999	0.19702	
221731	2.13279	2.65268	0.247935	-0.0337082	-0.00537898	1.78739e-11	-0.175999	0.609619	0.0851138	
221972	2.12855	2.63682	0.257886	-0.0200042	0.00310458	3.09593e-11	-0.16598	0.451664	0.0859979	
222122	2.13836	2.63701	0.258135	-0.0192095	0.00780447	1.82899e-11	-0.326365	0.387492	0.0508053	
222151	2.13836	2.63701	0.258135	-0.0149537	0.00581042	4.77273e-11	-0.215638	0.476426	0.159091	
