MS	x	y	z	vx	vy	vz	ax	ay	az	
8581	0.93763	-1.41921	1.53939	0	0	0	82236.8	-30697	65671.9	
8611	0.938544	-1.41546	1.53499	2.4671e-05	-9.2091e-06	1.97016e-05	67622	277467	-325468	
8641	0.938544	-1.41546	1.53499	0.000105818	0.000323752	-0.00037086	67622	277467	-325468	
8672	0.938544	-1.41546	1.53499	0.000249852	0.000914757	-0.00106411	67622	277467	-325468	
8701	0.935763	-1.4123	1.53815	0.00029854	0.00111453	-0.00129844	-209363	237993	237726	
8731	0.935422	-1.41586	1.53854	0.000198046	0.00122877	-0.00118433	-25874.9	-270477	29899.7	
8791	0.932071	-1.40994	1.54033	-0.0438554	0.000751706	1.77871e-10	-447396	12016.4	-28615	
8821	0.933409	-1.40791	1.53828	-0.0441507	0.000759637	-1.88857e-05	103579	157514	-158531	
8852	0.930865	-1.41408	1.53899	-0.0441476	0.000764362	-2.36416e-05	-10579.2	-71851	-61111.3	
8881	0.931149	-1.413	1.53943	-0.0441517	0.000736341	-4.7475e-05	22265.1	85339.9	34730.7	
8912	0.931344	-1.41238	1.5402	-0.0441464	0.000756822	-3.91397e-05	15468.7	48805.9	60848.6	
8972	0.931748	-1.41497	1.53548	-0.0448907	0.00141721	2.26101e-10	-8289.93	-106169	14733.5	
9001	0.93289	-1.40954	1.5409	-0.0448914	0.00140766	1.32624e-06	92512.7	439656	438804	
9032	0.935614	-1.40298	1.53858	-0.0448637	0.00153955	0.000132967	221711	533586	-188826	
9062	0.935614	-1.40298	1.53858	-0.0445976	0.00217986	-9.3624e-05	221711	533586	-188826	
9091	0.932783	-1.41029	1.54011	-0.0445244	0.00235594	-0.000155937	-233386	-602334	125688	
9122	0.934899	-1.41638	1.54209	-0.0446155	0.00212103	-0.000106918	175570	-505953	164048	
9152	0.934899	-1.41638	1.54209	-0.044389	0.00146835	0.000104704	175570	-505953	164048	
9212	0.935006	-1.4014	1.54017	-0.0440439	0.00224825	1.07211e-10	-333487	979442	-651070	
9241	0.938898	-1.40715	1.54174	-0.0441539	0.00257146	-0.000214853	331586	-489747	133890	
9272	0.93858	-1.40698	1.54186	-0.0440047	0.00235108	-0.000154603	-27246.1	14245.5	10023.8	
9301	0.935014	-1.40299	1.54276	-0.044026	0.00236219	-0.000146784	-306826	343913	77241.4	
9332	0.934989	-1.40406	1.5416	-0.0442561	0.00262012	-8.8853e-05	-2153.93	-92820.5	-100452	
9391	0.941722	-1.4083	1.53789	-0.0427383	0.0013185	7.31045e-11	-47031	-42870.1	121304	
9422	0.940288	-1.40791	1.53818	-0.0427566	0.00130178	4.73087e-05	-127013	34505	25452.1	
9451	0.940288	-1.40791	1.53818	-0.0429166	0.00134526	7.93783e-05	-127013	34505	25452.1	
9482	0.937057	-1.40479	1.54151	-0.0429471	0.00135354	8.54868e-05	-33303.2	-95395.7	84002	
9511	0.937057	-1.40479	1.54151	-0.0429841	0.00124765	0.000178729	-33303.2	-95395.7	84002	
9542	0.937439	-1.40307	1.54024	-0.0430081	0.00117897	0.000239211	34651	155647	-115183	
9571	0.936285	-1.40457	1.5433	-0.0429873	0.00127236	0.000170101	-105253	-137146	279261	
9601	0.930481	-1.41318	1.54446	-0.0430189	0.00123121	0.000253879	-533946	-791966	106890	
9632	0.930481	-1.41318	1.54446	-0.0436756	0.000257093	0.000385354	-533946	-791966	106890	
9662	0.930481	-1.41318	1.54446	-0.0447969	-0.00140604	0.000609824	-533946	-791966	106890	
9691	0.930481	-1.41318	1.54446	-0.0463987	-0.00378193	0.000930495	-533946	-791966	106890	
9722	0.937152	-1.4162	1.54194	-0.046591	-0.00406704	0.000968975	-61185.2	-311801	-165450	
9751	0.937198	-1.41465	1.54295	-0.046635	-0.00429154	0.000849851	4335.34	146150	95756.4	
9782	0.939861	-1.41009	1.54365	-0.0466335	-0.00423892	0.000884324	-266274	15530.4	-50316	
9811	0.93757	-1.41121	1.54566	-0.0468172	-0.00422821	0.000849606	-219450	-106883	192245	
9842	0.939947	-1.4066	1.54427	-0.0468698	-0.00425386	0.000895744	229830	445862	-134216	
9871	0.933475	-1.40547	1.54636	-0.0468216	-0.00416023	0.000867559	-629647	109455	202845	
9902	0.933185	-1.40962	1.54537	-0.047086	-0.00411426	0.000952754	-28410	-405626	-96202.5	
9931	0.938402	-1.41461	1.54247	-0.0471073	-0.00441848	0.000880602	511901	-489656	-284331	
9962	0.93447	-1.40863	1.54311	-0.0468002	-0.00471227	0.000710003	-388620	591003	62459.4	
9991	0.938611	-1.41244	1.54259	-0.0470217	-0.0043754	0.000745605	411843	-378670	-51343.8	
10052	0.937847	-1.41643	1.53928	-0.0467348	0.00180315	2.19618e-10	-76740.5	-400177	-332025	
10112	0.936888	-1.41439	1.53774	-0.0460538	0.00230459	2.65799e-10	-61454.4	-132676	-394016	
10141	0.936888	-1.41439	1.53774	-0.0461644	0.00206577	-0.000709228	-61454.4	-132676	-394016	
10201	0.940808	-1.41146	1.53652	-0.0447227	0.00075996	2.91554e-10	405435	302925	-126899	
10261	0.937595	-1.41184	1.53019	-0.0453154	0.00136461	3.48413e-10	31732.1	-8700.28	-222992	
10291	0.938257	-1.40985	1.52461	-0.0453116	0.00136357	-2.67587e-05	43778	17621.6	-86856.3	
10322	0.939113	-1.41091	1.52511	-0.0452893	0.00137255	-7.10554e-05	90899	-112222	52575.2	
10351	0.936774	-1.40766	1.52677	-0.0452593	0.00133552	-5.37056e-05	-311185	377690	355535	
10381	0.934368	-1.40371	1.52836	-0.0453059	0.00139218	-3.7534e-07	-55778.8	89609	190789	
10411	0.934368	-1.40371	1.52836	-0.0453645	0.00148626	0.000199953	-55778.8	89609	190789	
10441	0.934696	-1.40538	1.5279	-0.045398	0.00154003	0.000314426	35661.6	-180827	-49568.3	
10501	0.934213	-1.40283	1.52728	-0.0454344	0.000457802	2.70549e-10	-52955.5	278463	-68753.4	
10532	0.933928	-1.40048	1.5273	-0.0454789	0.000691711	-5.77526e-05	-31351	259707	2979.94	
10562	0.935071	-1.40085	1.52941	-0.0455024	0.000886491	-5.55176e-05	126876	-40751.2	233939	
10622	0.934971	-1.40011	1.52938	-0.0459369	0.000565187	4.99838e-10	-11252.9	82131.6	-3810.12	
10651	0.934971	-1.40011	1.52938	-0.0459585	0.000722879	-7.31493e-06	-11252.9	82131.6	-3810.12	
10681	0.934971	-1.40011	1.52938	-0.0459903	0.00095449	-1.80595e-05	-11252.9	82131.6	-3810.12	
10711	0.93433	-1.40341	1.5328	-0.0459903	0.00095449	-1.80595e-05	16048.3	-106558	59342.5	
10742	0.934376	-1.40257	1.53263	-0.0459869	0.000932113	-5.59755e-06	5280.43	97054.7	-20359.7	
10771	0.934183	-1.40321	1.53277	-0.045984	0.000984523	-1.65918e-05	-22344.9	-73538.8	16691.3	
10801	0.934592	-1.39949	1.53327	-0.0459921	0.000958049	-1.05829e-05	47612.9	432419	58670.6	
10832	0.934448	-1.39999	1.53273	-0.0459807	0.00106183	3.49803e-06	-16912.5	-58779.1	-63340	
10892	0.934213	-1.40362	1.53219	-0.044758	0.0020947	1.82964e-10	42779.5	-138369	-1384.24	
10921	0.934042	-1.40305	1.53125	-0.044749	0.00206564	-2.90507e-07	9706.8	-378798	-19103	
10952	0.933774	-1.40067	1.53072	-0.0447435	0.00184973	-1.11792e-05	-31960.4	283346	-62763	
10981	0.934111	-1.39898	1.5312	-0.0447684	0.00207074	-6.01344e-05	40404.8	203287	57013.8	
11011	0.93412	-1.39971	1.53123	-0.044743	0.00219881	-2.42157e-05	1136.1	-88222.2	3149.59	
11042	0.93412	-1.39971	1.53123	-0.0447412	0.00206118	-1.93023e-05	1136.1	-88222.2	3149.59	
11071	0.93412	-1.39971	1.53123	-0.0447384	0.0018468	-1.16488e-05	1136.1	-88222.2	3149.59	
11101	0.934384	-1.39623	1.53103	-0.0447382	0.00182827	-1.09874e-05	32427.2	428328	-23486.5	
11132	0.93433	-1.40019	1.5322	-0.0447187	0.00208527	-2.50793e-05	-6692.8	-488942	143343	
11161	0.93433	-1.40019	1.5322	-0.0447286	0.00136653	0.000185635	-6692.8	-488942	143343	
11191	0.93433	-1.40019	1.5322	-0.0447444	0.000207733	0.000525358	-6692.8	-488942	143343	
11221	0.93373	-1.39854	1.53235	-0.0447452	0.00014906	0.000542559	-75405.3	207385	20049.5	
11252	0.93373	-1.39854	1.53235	-0.0448222	0.000360593	0.00056301	-75405.3	207385	20049.5	
11311	0.934014	-1.40458	1.53382	-0.0429765	0.00296832	1.58293e-10	36089.6	-768229	186042	
11371	0.934205	-1.40099	1.53337	-0.0433142	0.00205128	1.59426e-10	-35402.2	395305	-54899.8	
11431	0.934412	-1.40143	1.53309	-0.0425607	0.000860044	8.69338e-11	-20363.8	360582	-150979	
11462	0.934362	-1.40107	1.53345	-0.0425741	0.00109803	-9.96459e-05	-6594.01	46682.2	47718.2	
11551	0.934803	-1.40931	1.53503	-0.0432805	0.000821937	4.85405e-11	-12622.2	-123491	96261	
11582	0.934803	-1.40931	1.53503	-0.0432949	0.000681157	0.000109738	-12622.2	-123491	96261	
11611	0.934931	-1.40794	1.53459	-0.0433021	0.000610767	0.000164606	17069.9	184866	-59206.6	
11641	0.934931	-1.40794	1.53459	-0.043277	0.000882519	7.75728e-05	17069.9	184866	-59206.6	
11671	0.935887	-1.41117	1.53362	-0.0432672	0.000987893	4.38251e-05	129884	-439484	-131351	
11702	0.935598	-1.40792	1.53373	-0.0431503	0.000592357	-7.43908e-05	-39370.6	442923	14350	
11731	0.935364	-1.40725	1.53246	-0.0431716	0.000831535	-6.66417e-05	-32134.7	92698.7	-173297	
11791	0.934218	-1.40347	1.53263	-0.0439637	0.00277939	8.2258e-11	-112095	242733	68471.7	
11822	0.934259	-1.40662	1.53262	-0.0440108	0.00288134	2.87582e-05	5596.67	-439034	-1389.43	
11851	0.935044	-1.40262	1.53326	-0.0440088	0.00272329	2.8258e-05	110055	559830	88973.3	
11882	0.935631	-1.40633	1.53363	-0.0439229	0.00315995	9.76572e-05	82474	-521759	52875	
11911	0.935174	-1.40599	1.53407	-0.0438735	0.0028469	0.000129382	-64578.4	48763	62221.2	
11941	0.934875	-1.4033	1.53301	-0.0439006	0.00286738	0.000155515	-42540.5	382984	-151416	
11971	0.934675	-1.40721	1.53357	-0.0439133	0.00298227	0.00011009	-28513.4	-560448	81209.9	
12031	0.935454	-1.40668	1.53251	-0.0454569	0.0018367	7.31605e-11	4398.58	278846	-63705.4	
12061	0.935454	-1.40668	1.53251	-0.0454512	0.00219641	-8.21799e-05	4398.58	278846	-63705.4	
12092	0.935454	-1.40668	1.53251	-0.0454414	0.00281545	-0.000223606	4398.58	278846	-63705.4	
12122	0.935454	-1.40668	1.53251	-0.0454277	0.00368544	-0.000422367	4398.58	278846	-63705.4	
12182	0.936439	-1.40548	1.54768	-0.0447713	0.00103417	5.58262e-11	-20838.8	516388	-132623	
12211	0.936439	-1.40548	1.54768	-0.044795	0.00162285	-0.00015119	-20838.8	516388	-132623	
12242	0.936468	-1.40574	1.54689	-0.0448057	0.00188621	-0.000218828	4342.63	-38554.7	-118323	
12271	0.935944	-1.40755	1.54775	-0.0448041	0.00187233	-0.000261424	-78840.6	-272156	130431	
12302	0.936071	-1.406	1.54827	-0.0448183	0.00182334	-0.000237947	9039.88	77345.9	-14489.2	
12331	0.936632	-1.40527	1.54823	-0.0448137	0.00186279	-0.000245336	85085.5	109587	-7032.79	
12362	0.936446	-1.40556	1.54755	-0.0448009	0.00187923	-0.000246391	-16055.4	332498	-31285.9	
12391	0.936446	-1.40556	1.54755	-0.0448173	0.00221837	-0.000278303	-16055.4	332498	-31285.9	
12421	0.936446	-1.40556	1.54755	-0.0448481	0.00285677	-0.000338371	-16055.4	332498	-31285.9	
12451	0.936446	-1.40556	1.54755	-0.0448934	0.00379442	-0.000426598	-16055.4	332498	-31285.9	
12481	0.935816	-1.41001	1.54796	-0.0449021	0.00397397	-0.000443492	-97948.6	-691745	63606.5	
12512	0.936502	-1.41047	1.54774	-0.0449932	0.00333064	-0.000384338	106907	-71537.5	-34586.4	
12572	0.935762	-1.41298	1.54809	-0.0442389	0.00170154	1.81982e-10	-39095.7	-667020	168109	
12601	0.935762	-1.41298	1.54809	-0.0442952	0.000741036	0.000242077	-39095.7	-667020	168109	
12631	0.936072	-1.41034	1.54658	-0.0443011	0.000640983	0.000267293	49335.8	421069	-241275	
12662	0.936072	-1.41034	1.54658	-0.0442478	0.00109574	6.71639e-06	49335.8	421069	-241275	
12722	0.936327	-1.41462	1.54734	-0.0443326	0.00127235	2.22635e-10	64723.9	-106749	74838.9	
12751	0.936327	-1.41462	1.54734	-0.0442588	0.00115066	8.53166e-05	64723.9	-106749	74838.9	
12781	0.935793	-1.41487	1.54739	-0.0442335	0.00110902	0.000114504	-86996.2	-40142.8	7955.68	
12811	0.936507	-1.41482	1.54758	-0.0442988	0.00107892	0.00012047	116809	6866.67	30983.7	
12841	0.936135	-1.41387	1.54785	-0.0442672	0.00108077	0.000128836	-42049.1	-418190	97148.4	
12871	0.936156	-1.41306	1.54756	-0.0442912	0.000842403	0.000184211	3553.48	133694	-47364.3	
12901	0.936382	-1.41362	1.5469	-0.0442888	0.000934652	0.000151529	37547.6	-92347.6	-109770	
12931	0.936175	-1.40764	1.53373	-0.044282	0.000918029	0.000131771	-34617.1	998716	-2.20086e+06	
12962	0.934593	-1.40469	1.53115	-0.0443007	0.00145734	-0.00105669	-265128	494196	-432622	
12991	0.934489	-1.404	1.53182	-0.04442	0.00167972	-0.00125137	-17406.2	116590	113046	
13022	0.934739	-1.40754	1.53238	-0.0444341	0.00177416	-0.0011598	42117.6	-597714	95259.9	
13081	0.934567	-1.41184	1.53308	-0.0451816	0.00100182	3.36111e-10	-65637.2	283767	51047.6	
13112	0.934567	-1.41184	1.53308	-0.0453056	0.00153814	9.64804e-05	-65637.2	283767	51047.6	
13171	0.93516	-1.41322	1.55025	-0.0451141	0.00252441	7.85994e-11	472253	-329456	1.28154e+06	
13201	0.934774	-1.41381	1.54995	-0.0448024	0.00230697	0.000845819	-67032.4	-101988	-51358.1	
13231	0.934705	-1.4122	1.55031	-0.0448467	0.00223966	0.000811923	-11894.6	281116	61796.9	
13261	0.934919	-1.41118	1.54878	-0.0448534	0.0023999	0.000847147	37462.8	177793	-267547	
13351	0.935724	-1.41557	1.54844	-0.0435012	0.000418848	4.17649e-10	102821	-318562	-213018	
13382	0.935811	-1.41598	1.54832	-0.0434827	0.000361507	-3.83428e-05	106776	137536	-77832.8	
13411	0.935811	-1.41598	1.54832	-0.0433706	0.00050592	-0.000120067	106776	137536	-77832.8	
13471	0.935337	-1.40771	1.548	-0.0442534	0.000401214	1.73274e-10	-19786.8	-161046	88432.9	
13502	0.935337	-1.40771	1.548	-0.044276	0.000217621	0.000100814	-19786.8	-161046	88432.9	
13561	0.935352	-1.40464	1.54746	-0.0465437	0.00265654	5.57966e-10	2771.58	560607	-97566.3	
13591	0.935352	-1.40464	1.54746	-0.0465371	0.00398517	-0.000231232	2771.58	560607	-97566.3	
13651	0.934893	-1.40492	1.54777	-0.0438767	0.0019766	1.76247e-10	-21133	-229345	108904	
13682	0.935157	-1.40407	1.54724	-0.0438931	0.00179771	8.49455e-05	49324.8	158326	-99882.8	
13711	0.934825	-1.40616	1.54729	-0.0438561	0.00191646	1.00335e-05	-62258.7	-392095	10239.8	
13742	0.934403	-1.41088	1.54853	-0.043858	0.00190469	1.03406e-05	-26658.5	-1.38055e+06	145110	
13771	0.934671	-1.41029	1.54812	-0.043862	0.00169761	3.21071e-05	50740.4	110605	-78554.9	
13831	0.934451	-1.41234	1.54787	-0.036792	-0.00157173	8.87867e-11	-24564.6	-707482	7097.23	
13861	0.935076	-1.41172	1.54859	-0.036806	-0.00197499	4.04551e-06	119895	119003	136312	
13891	0.934885	-1.40582	1.54796	-0.0367917	-0.00196071	2.0403e-05	-36908.7	1.13754e+06	-120622	
13922	0.934885	-1.40582	1.54796	-0.0368304	-0.000766292	-0.00010625	-36908.7	1.13754e+06	-120622	
13951	0.935545	-1.40952	1.54788	-0.0368393	-0.000493282	-0.0001352	128242	-719045	-16077.8	
14042	0.935105	-1.4102	1.54843	-0.0423077	0.00413932	4.69302e-10	-88012.3	-563041	-109354	
14071	0.935105	-1.4102	1.54843	-0.0425084	0.00285559	-0.000249327	-88012.3	-563041	-109354	
14132	0.936116	-1.40427	1.54789	-0.0441623	0.00221847	1.80016e-10	200772	1.17926e+06	-105605	
14161	0.934723	-1.40602	1.54779	-0.044102	0.00257225	-3.16814e-05	-160855	-261004	-247707	
14192	0.936179	-1.40879	1.54818	-0.044213	0.00239216	-0.000202599	292257	-556151	80174	
14252	0.934784	-1.40686	1.55073	-0.039504	0.00102268	5.8472e-10	-281271	388301	512584	
14281	0.934583	-1.41007	1.55017	-0.0395631	0.00110423	0.000107643	-135560	245352	-65598	
14312	0.934551	-1.41028	1.54936	-0.0396322	0.00122936	7.41882e-05	-6699.02	-44228.7	-167038	
14342	0.935619	-1.40792	1.54915	-0.0396347	0.00121343	1.40546e-05	219321	485994	-42609.6	
14371	0.934742	-1.40714	1.54915	-0.0396018	0.00128633	7.66315e-06	-42285.8	204798	54221.9	
14402	0.934619	-1.40824	1.54934	-0.039617	0.00136006	2.7183e-05	-25321.3	-228008	38338.8	
14432	0.93479	-1.40945	1.54961	-0.0396223	0.00131218	3.52342e-05	35541.1	-251326	56799.9	
14461	0.934809	-1.4091	1.54974	-0.0396052	0.00119154	6.24981e-05	3886.56	73553.1	26331.4	
14492	0.934773	-1.41283	1.55068	-0.0396019	0.00125553	8.54065e-05	-7480.8	-780653	196410	
14521	0.934773	-1.41283	1.55068	-0.0396149	-0.000102802	0.00042716	-7480.8	-780653	196410	
14551	0.934773	-1.41283	1.55068	-0.0396346	-0.00216373	0.000945682	-7480.8	-780653	196410	
14582	0.933504	-1.40825	1.54953	-0.0396411	-0.00284289	0.00111656	-268746	969359	-242177	
14642	0.934699	-1.40845	1.54885	-0.0257992	0.00066788	1.65316e-10	5278.11	319614	50590.2	
14671	0.935394	-1.40707	1.5484	-0.025796	0.000859649	3.03543e-05	149113	295947	-95377.1	
14701	0.935625	-1.40746	1.54755	-0.0257468	0.000957311	-1.12017e-06	49821.9	-84972.6	-184074	
14731	0.935305	-1.41125	1.54865	-0.0257124	0.00089868	-0.000128131	-69123.9	-818506	238096	
14761	0.934993	-1.41199	1.54918	-0.0257684	0.00023569	6.47264e-05	-67730.8	-160977	114111	
14821	0.93387	-1.41448	1.55166	-0.0218658	0.000566045	2.61446e-10	-322279	-1.28858e+06	674696	
14852	0.93387	-1.41448	1.55166	-0.0222042	-0.000786969	0.000708431	-322279	-1.28858e+06	674696	
14881	0.933367	-1.4156	1.55342	-0.0223105	-0.0012122	0.000931081	-111326	-249115	389992	
15002	0.934163	-1.40691	1.55242	-0.017983	0.000465518	3.29331e-10	-150900	851676	-4381.16	
15031	0.934163	-1.40691	1.55242	-0.0182728	0.00210074	-8.41149e-06	-150900	851676	-4381.16	
15062	0.933338	-1.40277	1.55165	-0.018395	0.00279059	-1.19602e-05	-186484	934780	-174316	
15091	0.933956	-1.41102	1.55145	-0.0185293	0.00346364	-0.000137468	140364	-1.87311e+06	-45561.8	
15121	0.933613	-1.40808	1.55168	-0.0184956	0.00301409	-0.000148403	84363.4	-293294	35715.1	
15212	0.933011	-1.40827	1.55165	-0.0144962	0.000375243	1.45578e-10	35269.8	-486680	-199790	
15241	0.933283	-1.41256	1.55248	-0.0144782	0.000127036	-0.000101893	63093.8	-993916	191397	
15332	0.932227	-1.40543	1.55222	-0.0131134	0.000339448	2.12902e-10	-7869.25	944158	-31128.2	
15361	0.93335	-1.41147	1.5508	-0.0131195	0.00107589	-2.42798e-05	264128	-1.41994e+06	-332679	
15391	0.933279	-1.41086	1.55171	-0.0130323	0.00060731	-0.000134064	-16610.6	144472	216025	
15422	0.931821	-1.40758	1.55109	-0.0130413	0.000685325	-1.74102e-05	-345956	779024	-148194	
15482	0.932228	-1.41092	1.55363	-0.0114534	0.000296473	4.50901e-10	96935.4	-796556	605746	
15542	0.931893	-1.40938	1.55123	-0.010839	0.000280566	2.78398e-10	-80514.1	369734	-576872	
15571	0.931893	-1.40938	1.55123	-0.0110032	0.00103482	-0.00117682	-80514.1	369734	-576872	
15601	0.935156	-1.41665	1.55271	-0.0110443	0.00122339	-0.00147102	792293	-1.76544e+06	359652	
15632	0.936615	-1.40736	1.55007	-0.0109968	0.00111746	-0.00144945	432264	1.07207e+06	-415018	
15752	0.933049	-1.4077	1.53298	-0.0087813	0.000227296	5.42399e-10	-27012.4	1.95453e+06	-1.06381e+06	
15781	0.930735	-1.39439	1.53393	-0.00880156	0.0016932	-0.00079786	-574468	3.30425e+06	234277	
15812	0.931308	-1.40131	1.5344	-0.00911178	0.00347749	-0.00067135	143132	-1.72613e+06	117344	
15841	0.931525	-1.39977	1.53328	-0.00910748	0.00342571	-0.00066783	-616058	-1.90732e+06	-3.24143e+06	
15901	0.934701	-1.39621	1.53803	-0.00740529	0.000191679	3.14631e-10	779735	-240177	932988	
15961	0.929228	-1.39574	1.53664	-0.0068689	0.000177793	4.80399e-11	-488875	-2.11556e+06	-208655	
15991	0.929228	-1.39574	1.53664	-0.00752888	-0.00267821	-0.000281684	-488875	-2.11556e+06	-208655	
16022	0.912385	-1.39055	1.52269	-0.00773421	-0.00356675	-0.000369319	-4.31623e+06	1.32889e+06	-3.57463e+06	
16051	0.906523	-1.38968	1.52837	-0.00838164	-0.00336741	-0.000905514	279405	-301610	355707	
16082	0.905992	-1.38506	1.5281	-0.00823076	-0.00353028	-0.000713432	-137012	1.19192e+06	-69984	
16111	0.920926	-1.38881	1.54167	-0.00828009	-0.00310119	-0.000738626	3.87072e+06	-971644	3.51787e+06	
16171	0.913224	-1.397	1.5431	-0.00556494	0.000144033	5.05183e-11	-1.67307e+06	-3.33894e+06	1.71307e+06	
16202	0.918866	-1.39358	1.54158	-0.00611706	-0.000957818	0.000565312	1.479e+06	896597	-396418	
16231	0.915313	-1.38222	1.54606	-0.00571773	-0.000715737	0.000458279	-935007	2.99045e+06	1.17842e+06	
16262	0.918597	-1.37946	1.54345	-0.00602628	0.000271111	0.000847158	867320	729215	-690059	
16291	0.918597	-1.37946	1.54345	-0.00498549	0.00114617	1.90873e-05	867320	729215	-690059	
16322	0.921612	-1.37426	1.54346	-0.00425695	0.00175871	-0.000560562	800384	1.38075e+06	3906.72	
16351	0.929581	-1.38241	1.54778	-0.00356061	0.00295997	-0.000557163	2.12321e+06	-2.17217e+06	1.1501e+06	
16382	0.927063	-1.37416	1.54651	-0.00215929	0.00152634	0.0002019	-674121	2.20769e+06	-339703	
16411	0.931336	-1.38173	1.54355	-0.00219974	0.0016588	0.000181518	1.1507e+06	-2.03898e+06	-796500	
16471	0.929677	-1.38196	1.54399	-0.00411947	0.000106627	1.26348e-10	-447825	-61436.1	117543	
16502	0.914483	-1.37658	1.53496	-0.00418665	9.7412e-05	1.76316e-05	-2.25265e+06	-750167	2.65479e+06	
16531	0.910066	-1.37642	1.51647	-0.00513276	-0.000217658	0.00113265	-1.20485e+06	45454.1	-5.04352e+06	
16562	0.955396	-1.38815	1.52635	-0.00560265	-0.000199931	-0.000834328	1.24145e+07	-3.21208e+06	2.70561e+06	
16591	0.945418	-1.389	1.5307	-0.00225074	-0.00106719	-0.000103814	-2.74371e+06	-236002	1.19463e+06	
16621	0.945339	-1.39287	1.52967	-0.00299154	-0.00113091	0.000218737	-21794.1	-1.06606e+06	-282116	
16651	0.945339	-1.39287	1.52967	-0.00301704	-0.00237821	-0.000111339	-21794.1	-1.06606e+06	-282116	
16682	0.930484	-1.38778	1.53094	-0.00301965	-0.00250613	-0.000145192	-384460	264467	-462668	
16711	0.930484	-1.38778	1.53094	-0.00340027	-0.00224431	-0.000603234	-384460	264467	-462668	
16742	0.944725	-1.37999	1.5273	-0.00367708	-0.0020539	-0.000936355	3.98015e+06	2.17957e+06	-1.01716e+06	
16771	0.932307	-1.3723	1.53163	-0.00296066	-0.00166157	-0.00111944	-1.12498e+06	1.23018e+06	2.32335e+06	
16801	0.933891	-1.37602	1.52904	-0.00309565	-0.00151395	-0.000840642	446933	-1.04989e+06	-732136	
16832	0.933891	-1.37602	1.52904	-0.00262637	-0.00261634	-0.00160938	446933	-1.04989e+06	-732136	
16862	0.896178	-1.34328	1.46765	-0.00243866	-0.0030573	-0.00191688	-1.0705e+07	9.2932e+06	-1.7426e+07	
16891	0.897149	-1.33425	1.44258	-0.00693476	0.000845848	-0.00923582	276386	2.57011e+06	-7.141e+06	
16922	0.891283	-1.34262	1.41608	-0.00681038	0.0020024	-0.0124493	-1.6766e+06	-2.39027e+06	-7.57356e+06	
16951	0.891283	-1.34262	1.41608	-0.00902349	-0.00115276	-0.0224464	-1.6766e+06	-2.39027e+06	-7.57356e+06	
16981	0.877603	-1.32273	1.4209	-0.00962707	-0.00201325	-0.0251729	-3.93914e+06	5.72538e+06	1.38854e+06	
17011	0.89369	-1.3209	1.39764	-0.0125814	0.00228078	-0.0241315	4.64147e+06	529975	-6.71174e+06	
17041	0.886918	-1.32425	1.36153	-0.010075	0.00256697	-0.0277558	-1.96236e+06	-971086	-1.04634e+07	
17071	0.888253	-1.31775	1.32889	-0.0116645	0.00178039	-0.0362311	387884	1.88812e+06	-9.48252e+06	
17102	0.870817	-1.32263	1.29885	-0.0113504	0.00330977	-0.043912	-5.0836e+06	-1.42484e+06	-8.758e+06	
17132	0.880085	-1.31967	1.2627	-0.0156206	0.0021129	-0.0512687	2.71129e+06	866545	-1.05757e+07	
17161	0.866733	-1.29207	1.2427	-0.0134244	0.0028148	-0.059835	-3.9198e+06	8.10322e+06	-5.87275e+06	
17252	0.862855	-1.28827	1.17673	0.00455315	-0.115127	-2.26663e-09	-1.76676e+06	2.01541e+06	-1.36721e+07	
17281	0.854718	-1.26465	1.14808	0.00328108	-0.113676	-0.00984388	-2.42333e+06	7.03344e+06	-8.53333e+06	
17312	0.833498	-1.25988	1.03974	0.00262678	-0.111777	-0.0121479	-6.62865e+06	6.4645e+06	-1.31343e+07	
17372	0.838528	-1.23247	0.926925	0.0582044	-0.0711445	-1.247e-10	39059.5	3.49753e+06	-1.60336e+07	
17401	0.838528	-1.23247	0.926925	0.0582478	-0.0672623	-0.0177973	39059.5	3.49753e+06	-1.60336e+07	
17432	0.843898	-1.21675	0.863544	0.0582642	-0.0657933	-0.0245314	1.62899e+06	4.76765e+06	-1.92291e+07	
17521	0.854954	-1.19945	0.744624	0.458032	-0.381314	4.05014e-09	2.83278e+06	4.00426e+06	-1.76994e+07	
17552	0.866933	-1.20231	0.691299	0.460327	-0.378071	-0.0143365	3.67921e+06	-878522	-1.63774e+07	
17612	0.851702	-1.18706	0.564664	0.39093	-0.220867	6.09956e-10	-682092	3.10693e+06	-2.17553e+07	
17642	0.843857	-1.19562	0.513624	0.390623	-0.219469	-0.0097899	-2.43764e+06	-2.65867e+06	-1.58588e+07	
17671	0.846816	-1.19136	0.498227	0.389599	-0.220585	-0.0164506	922845	1.32679e+06	-4.80016e+06	
17702	0.842782	-1.18481	0.440325	0.390014	-0.219988	-0.0186107	-1.26202e+06	2.05029e+06	-1.81137e+07	
17731	0.848695	-1.16407	0.416336	0.389144	-0.218574	-0.0311091	1.85406e+06	6.5019e+06	-7.52221e+06	
17762	0.840053	-1.16815	0.40144	0.3902	-0.214867	-0.0353968	-2.7206e+06	-1.28378e+06	-4.6896e+06	
17791	0.840053	-1.16815	0.40144	0.386283	-0.216716	-0.0421498	-2.7206e+06	-1.28378e+06	-4.6896e+06	
17822	0.845473	-1.16147	0.375019	0.384732	-0.217448	-0.0448229	1.71789e+06	2.11839e+06	-8.37398e+06	
17851	0.854877	-1.15429	0.357337	0.38566	-0.216304	-0.0493448	2.99048e+06	2.28393e+06	-5.62306e+06	
17911	0.86428	-1.16484	0.306885	0.086498	-0.0956311	6.58838e-09	3.51323e+06	-3.7647e+06	-5.7979e+06	
18001	0.869202	-1.15523	0.304623	0.115959	0.0864514	-0.0323523	1.57886e+06	3.08252e+06	-725575	
18031	0.87003	-1.15428	0.304237	0.11648	0.0874686	-0.0325917	269002	307833	-125383	
18062	0.865933	-1.1616	0.304357	0.116561	0.087561	-0.0326293	-1.33522e+06	-2.38498e+06	39158.4	
18091	0.869103	-1.15678	0.305082	0.11604	0.0866308	-0.0326141	1.03613e+06	1.57648e+06	237005	
18121	0.869471	-1.15538	0.303343	0.116693	0.087624	-0.0324648	120336	457727	-569840	
18151	0.872971	-1.14762	0.303705	0.116693	0.087624	-0.0324648	-865789	-1.81298e+06	33782.2	
18182	0.873279	-1.13838	0.303381	0.116459	0.0871345	-0.0324556	101869	3.05165e+06	-107160	
18211	0.874518	-1.13804	0.302669	0.116514	0.0887824	-0.0325135	409978	113068	-235491	
18242	0.884709	-1.12396	0.33625	0.11676	0.0888502	-0.0326548	3.38402e+06	4.67549e+06	1.11504e+07	
18331	0.871726	-1.10393	0.383802	-0.0447686	0.0650899	-1.6377e-09	5.51934e+06	-2.51253e+06	3.12187e+06	
18362	0.875216	-1.10487	0.40443	-0.0399668	0.062904	0.00271602	1.17297e+06	-314456	6.93293e+06	
18422	0.862714	-1.08517	0.425407	-0.0139346	0.0437133	-2.11322e-09	-1.61009e+06	1.54363e+06	2.6395e+06	
18451	0.857603	-1.08956	0.425165	-0.0146109	0.0443616	0.00110859	-1.73722e+06	-1.49377e+06	-82278.6	
18511	0.855215	-1.0791	0.426799	0.0257809	0.0510946	-6.3257e-10	-424156	2.48733e+06	-507172	
18542	0.855215	-1.0791	0.426799	0.0253355	0.0537063	-0.000532532	-424156	2.48733e+06	-507172	
18571	0.861856	-1.07997	0.42522	0.0251574	0.054751	-0.000745544	2.28681e+06	-300347	-543768	
18602	0.867269	-1.08982	0.425885	0.026255	0.0546068	-0.00100655	1.86984e+06	-3.40111e+06	229641	
18691	0.868092	-1.08337	0.422971	0.0574732	0.00706611	-4.44891e-12	-2.18054e+06	1.03252e+06	-40736	
18722	0.873748	-1.07906	0.421209	0.0562303	0.00765465	-2.32195e-05	1.97858e+06	1.50871e+06	-616422	
18782	0.881313	-1.09078	0.423824	0.0661352	0.00737839	1.35291e-10	1.7838e+06	-971379	-1.34604e+06	
18902	0.888177	-1.09783	0.417984	0.052234	0.00759191	9.88229e-10	982365	222950	-1.21906e+06	
18931	0.888177	-1.09783	0.417984	0.0540317	0.00799991	-0.00223088	982365	222950	-1.21906e+06	
18962	0.879015	-1.0914	0.418965	0.0545916	0.00812699	-0.00292574	-3.28773e+06	2.3075e+06	352006	
18991	0.885762	-1.09245	0.410967	0.052619	0.00951149	-0.00271454	2.42826e+06	-377649	-2.87839e+06	
19022	0.881133	-1.09655	0.417474	0.0532018	0.00942085	-0.00340536	-1.67355e+06	-1.48324e+06	2.35268e+06	
19051	0.881133	-1.09655	0.417474	0.0513442	0.00777445	-0.000793881	-1.67355e+06	-1.48324e+06	2.35268e+06	
19082	0.888836	-1.08893	0.408077	0.0502898	0.00684001	0.000688307	2.79869e+06	2.76966e+06	-3.41434e+06	
19111	0.887688	-1.0943	0.407081	0.0518011	0.00833562	-0.00115544	-418306	-1.95743e+06	-363153	
19141	0.887653	-1.09829	0.408849	0.0516631	0.00768967	-0.00127528	-12780.9	-1.46115e+06	647276	
19261	0.898514	-1.1143	0.420844	0.0301956	0.0164027	1.00806e-10	3.88464e+06	-4.30732e+06	3.65214e+06	
19292	0.903143	-1.10667	0.422641	0.0318271	0.0145936	0.0015339	1.72031e+06	2.83478e+06	667679	
19321	0.898479	-1.11327	0.41767	0.0319303	0.0147637	0.00157396	-835819	-481102	-1.24719e+06	
19352	0.898479	-1.11327	0.41767	0.0311029	0.0142874	0.000339238	-835819	-481102	-1.24719e+06	
19381	0.89959	-1.11966	0.418955	0.0307017	0.0140565	-0.000259415	416794	-2.39836e+06	481946	
19412	0.89959	-1.11966	0.418955	0.0312894	0.0106748	0.000420129	416794	-2.39836e+06	481946	
19441	0.900203	-1.11949	0.41966	0.0315144	0.00937969	0.00068038	231395	64296	265827	
19472	0.900203	-1.11949	0.41966	0.0318546	0.0094742	0.00107115	231395	64296	265827	
19501	0.900203	-1.11949	0.41966	0.0323961	0.00962466	0.00169318	231395	64296	265827	
19532	0.901902	-1.11883	0.420898	0.0325349	0.00966323	0.00185268	646809	253093	471403	
19561	0.903512	-1.11871	0.424826	0.0325737	0.00967842	0.00188096	615797	44998.4	1.50276e+06	
19621	0.903419	-1.12264	0.424363	0.0356288	0.0179107	8.38771e-11	-35762.3	-1.50798e+06	-177561	
19681	0.903176	-1.122	0.422856	0.0338369	0.0102502	9.82002e-11	-12837.9	-236692	-294786	
19712	0.903998	-1.1239	0.423719	0.0338361	0.010236	-1.76871e-05	567236	214875	-1.31317e+06	
19772	0.902801	-1.11993	0.424829	0.0397541	0.0272951	7.88794e-10	-465764	1.5474e+06	432045	
19801	0.903774	-1.12302	0.422908	0.0396842	0.0275272	6.48075e-05	-935669	427305	-432652	
19832	0.903774	-1.12302	0.422908	0.0386737	0.0279887	-0.000402456	-935669	427305	-432652	
19861	0.901679	-1.11687	0.425465	0.0380561	0.0282707	-0.000688006	-824493	2.42308e+06	1.00641e+06	
19891	0.918319	-1.12361	0.428995	0.0377841	0.0290703	-0.000355889	6.57649e+06	-2.66668e+06	1.39479e+06	
19922	0.918777	-1.12607	0.428496	0.0383759	0.0288303	-0.000230358	892644	-1.53524e+06	-184.759	
19982	0.916568	-1.12049	0.428017	0.0234673	0.0135294	5.10234e-10	-877873	2.2176e+06	-190054	
20011	0.916568	-1.12049	0.428017	0.0215447	0.018386	-0.000416218	-877873	2.2176e+06	-190054	
20042	0.91437	-1.11056	0.425717	0.0214394	0.0186521	-0.000439024	-223694	4.70895e+06	-1.23726e+06	
20102	0.915069	-1.12694	0.429257	8.44519e-11	2.99175e-10	1.86969e-10	-202755	-3.25727e+06	-493468	
20131	0.914563	-1.12664	0.427548	-6.08263e-05	-0.00097718	-0.00014804	-204965	122466	-691944	
20162	0.916263	-1.12787	0.427553	-0.000183805	-0.000903701	-0.000563206	689554	-499879	2078.11	
20191	0.914818	-1.12513	0.427127	-1.83121e-05	-0.00102367	-0.000562708	-104139	-591184	-210346	
20251	0.935831	-1.14124	0.431697	0.00168724	-0.000299775	-0.000865606	1.38532e+06	-1.22798e+06	1.27282e+06	
20282	0.939867	-1.12651	0.43061	0.00247687	-0.000999726	-0.000140097	1.65686e+06	6.04755e+06	-446231	
20311	0.929718	-1.13271	0.431111	0.00327216	0.0019031	-0.000354288	-4.17997e+06	-2.55692e+06	206242	
20341	0.929552	-1.13103	0.430325	0.00176738	0.000982607	-0.00028004	-68625.2	695220	-324940	
20371	0.930185	-1.13122	0.431491	0.00173649	0.00129546	-0.000426263	262225	-76101.3	483004	
20431	0.930382	-1.13061	0.431702	0.035277	0.0150192	3.30149e-10	81820.4	253585	87894	
20462	0.93051	-1.13154	0.431147	0.035331	0.0151866	5.80104e-05	53618.1	-390501	-231923	
20491	0.93002	-1.12993	0.430598	0.0353487	0.0150577	-1.85243e-05	-205586	677188	-230410	
20521	0.938083	-1.14013	0.436008	0.035324	0.015139	-4.61736e-05	3.39411e+06	-4.29387e+06	2.27748e+06	
20551	0.939567	-1.13619	0.435709	0.0366477	0.0134643	0.000842045	625952	1.65838e+06	-126141	
20582	0.940148	-1.13939	0.436582	0.0370608	0.0145589	0.000758792	245382	-1.35269e+06	368861	
20611	0.931066	-1.13795	0.431457	0.0370829	0.0144371	0.00079199	-307163	-1.1658e+06	-125737	
20701	0.932591	-1.13327	0.43301	0.0161899	-0.000712999	4.21363e-10	205300	650508	214867	
20761	0.933094	-1.13877	0.432139	0.012725	0.0027686	3.63605e-10	-348454	-1.54379e+06	-241182	
20791	0.933914	-1.13546	0.4298	0.0127145	0.00272229	-7.23509e-06	736044	703398	-774366	
20822	0.933914	-1.13546	0.4298	0.0134211	0.00339755	-0.000750627	736044	703398	-774366	
20851	0.934497	-1.13818	0.429951	0.0138407	0.00379849	-0.00119202	252969	-1.17674e+06	65677.3	
20882	0.936594	-1.13934	0.428307	0.0139621	0.00323366	-0.00116049	912876	-506577	-715910	
20911	0.936594	-1.13934	0.428307	0.0151945	0.00254978	-0.00212697	912876	-506577	-715910	
20941	0.936594	-1.13934	0.428307	0.0172485	0.00140998	-0.00373777	912876	-506577	-715910	
20972	0.933898	-1.14418	0.426486	0.0180427	0.000969257	-0.00436061	-1.18241e+06	-2.12434e+06	-798959	
21001	0.930386	-1.14919	0.426461	0.0179717	0.000841797	-0.00440855	102792	-459093	-146221	
21032	0.930811	-1.14965	0.427872	0.0180026	0.000704069	-0.00445241	187719	-201754	623576	
21061	0.930911	-1.14857	0.427645	0.0181039	0.000595122	-0.00411568	44209	474504	-100336	
21092	0.932706	-1.14539	0.4274	0.0181358	0.000936765	-0.00418792	796785	1.41346e+06	-108863	
21121	0.941512	-1.16678	0.419512	0.0184943	0.00157282	-0.00423691	3.92272e+06	-9.52882e+06	-3.51405e+06	
21212	0.945299	-1.15443	0.422794	-0.0628184	0.0521801	4.5917e-10	-5.76989e+06	7.67974e+06	1.20678e+06	
21241	0.948435	-1.17693	0.424966	-0.0659341	0.0563271	0.000651662	1.41236e+06	-1.01355e+07	978296	
21272	0.953494	-1.18145	0.423018	-0.0652986	0.0517662	0.0010919	2.28602e+06	-2.0416e+06	-880013	
21301	0.952167	-1.1846	0.424271	-0.0641327	0.0507249	0.000643089	-601119	-1.42542e+06	567578	
21332	0.955394	-1.1819	0.421171	-0.0644934	0.0498697	0.000983636	1.46576e+06	1.22296e+06	-1.40781e+06	
21391	0.948742	-1.1721	0.423694	-0.0703758	0.0586905	7.54016e-10	-3.03398e+06	4.47259e+06	1.15073e+06	
21422	0.948742	-1.1721	0.423694	-0.076292	0.0674121	0.00224393	-3.03398e+06	4.47259e+06	1.15073e+06	
21451	0.954407	-1.19304	0.417163	-0.0782034	0.0702298	0.00296889	2.6013e+06	-9.61678e+06	-2.99962e+06	
21482	0.953778	-1.19865	0.415788	-0.0777352	0.0684988	0.00242895	-658790	-4.08985e+06	-1.88301e+06	
21511	0.951123	-1.19402	0.417759	-0.0780317	0.0666584	0.0015816	-1.22678e+06	2.13786e+06	910715	
21542	0.943736	-1.20994	0.435391	-0.0789149	0.0681976	0.00223731	-3.42061e+06	-7.36942e+06	8.1641e+06	
21571	0.938927	-1.22545	0.427275	-0.0817882	0.0620073	0.00909516	-2.23168e+06	-7.19927e+06	-3.76669e+06	
21602	0.941133	-1.22284	0.426257	-0.0832611	0.0572558	0.00660914	1.02698e+06	1.21719e+06	-474092	
21631	0.937869	-1.22725	0.428651	-0.0828298	0.057767	0.00641003	-1.52499e+06	-2.0599e+06	1.1191e+06	
21662	0.937869	-1.22725	0.428651	-0.0848886	0.0549862	0.00792081	-1.52499e+06	-2.0599e+06	1.1191e+06	
21722	0.927482	-1.23046	0.468941	-0.0438404	0.0472416	1.15105e-10	2.5227e+06	-6.16367e+06	1.95391e+06	
21751	0.936083	-1.23774	0.465103	-0.041797	0.042249	0.00158267	4.05942e+06	-3.4331e+06	-1.81111e+06	
21782	0.944418	-1.23971	0.462627	-0.0383871	0.0393652	6.13318e-05	3.94419e+06	-932200	-1.17203e+06	
21811	0.94147	-1.23804	0.462863	-0.0360206	0.0388059	-0.000641884	-1.39986e+06	793549	112416	
21871	0.928959	-1.23194	0.466108	-0.0356466	0.0328968	1.08014e-10	-5.96799e+06	2.91036e+06	1.54776e+06	
21901	0.927874	-1.23638	0.471697	-0.0406597	0.0353415	0.00130012	-519046	-2.12667e+06	2.67405e+06	
21931	0.927874	-1.23638	0.471697	-0.0415629	0.0316411	0.00595297	-519046	-2.12667e+06	2.67405e+06	
21962	0.936621	-1.25629	0.482783	-0.0419677	0.0299823	0.00803873	4.20899e+06	-9.58041e+06	5.33436e+06	
21991	0.937125	-1.25433	0.48264	-0.0400737	0.0256712	0.0104392	243105	948490	-68973.3	
22021	0.927016	-1.24868	0.47579	-0.040008	0.0259273	0.0104206	-4.89793e+06	2.73612e+06	-3.31918e+06	
22051	0.927016	-1.24868	0.47579	-0.0457386	0.0291285	0.00653712	-4.89793e+06	2.73612e+06	-3.31918e+06	
22082	0.92907	-1.26315	0.478441	-0.0499998	0.0315089	0.00364943	998902	-7.03715e+06	1.28921e+06	
22172	0.912867	-1.2686	0.489688	-0.0445951	0.0436303	4.25815e-10	1.65397e+06	-1.66433e+06	-2.19092e+06	
22201	0.922926	-1.27952	0.48183	-0.0432554	0.0422822	-0.00177465	4.94566e+06	-5.37294e+06	-3.86337e+06	
22232	0.917897	-1.28405	0.493203	-0.0401396	0.0388973	-0.00420857	-2.48088e+06	-2.23237e+06	5.6103e+06	
22261	0.918804	-1.27337	0.489323	-0.0404373	0.0386294	-0.00353533	449496	5.2908e+06	-1.92174e+06	
22321	0.925846	-1.28842	0.492236	-0.0545684	0.0209767	4.82339e-11	1.88583e+06	-6.7255e+06	1.75708e+06	
22352	0.927185	-1.2916	0.491957	-0.0543987	0.0203714	0.000158137	668503	-1.58908e+06	-139390	
22412	0.927266	-1.29551	0.493874	-0.0524625	0.0389283	3.44061e-10	40722.5	-1.95734e+06	960524	
22441	0.920371	-1.28721	0.496251	-0.052454	0.0385172	0.00020171	-3.46993e+06	4.17367e+06	1.19634e+06	
22472	0.921299	-1.28499	0.499607	-0.0534949	0.0397693	0.000560612	468199	1.12285e+06	1.69313e+06	
22501	0.919537	-1.29995	0.499964	-0.0534247	0.0399378	0.000814582	-891821	-7.57365e+06	180490	
22561	0.919254	-1.30869	0.501829	-0.0584581	0.0547254	2.96822e-10	-143495	-4.43185e+06	946253	
22592	0.916509	-1.30368	0.503928	-0.0585614	0.0515345	0.000681302	-1.39839e+06	2.55032e+06	1.06925e+06	
22621	0.916509	-1.30368	0.503928	-0.0607849	0.0555895	0.00238141	-1.39839e+06	2.55032e+06	1.06925e+06	
22652	0.903319	-1.30254	0.517608	-0.0620014	0.0578083	0.00331165	-6.75024e+06	586757	7.00117e+06	
22681	0.915657	-1.30488	0.51691	-0.0676716	0.0583012	0.00919264	6.33138e+06	-1.20526e+06	-358055	
22712	0.915296	-1.31541	0.520884	-0.0672918	0.0582288	0.00917115	-265859	508711	-302940	
22801	0.900961	-1.32156	0.522755	-0.061672	0.0402637	6.27891e-11	2.20535e+06	-1.60543e+06	-1.72065e+06	
22832	0.890405	-1.32226	0.533495	-0.0610766	0.0398302	-0.000464575	-5.49889e+06	-367912	5.59482e+06	
22891	0.888837	-1.3269	0.527373	-0.0660241	0.0434537	1.58024e-10	5.03743e+06	-5.77073e+06	-1.54535e+06	
22922	0.881459	-1.33962	0.530209	-0.0652685	0.0425881	-0.000231802	-3.87506e+06	-6.68358e+06	1.48988e+06	
22951	0.882029	-1.33019	0.526327	-0.0658498	0.0415855	-8.3195e-06	300541	4.96523e+06	-2.04416e+06	
23011	0.870046	-1.34152	0.547954	-0.0588419	0.0306995	1.4045e-10	967180	-2.83733e+06	2.28823e+06	
23041	0.888178	-1.3565	0.541159	-0.0583776	0.0293376	0.00109835	9.61294e+06	-7.94183e+06	-3.60214e+06	
23071	0.850715	-1.34639	0.557468	-0.0537634	0.0255255	-0.000630675	-1.99128e+07	5.37715e+06	8.66855e+06	
23102	0.867738	-1.34585	0.554117	-0.063919	0.0282679	0.00379028	9.07195e+06	283546	-1.78575e+06	
23131	0.885411	-1.36604	0.543989	-0.0595644	0.028404	0.00293312	9.44237e+06	-1.07845e+07	-5.41134e+06	
23162	0.886527	-1.36623	0.539213	-0.0544656	0.0225803	1.0997e-05	598131	-101817	-2.55824e+06	
23191	0.883869	-1.35707	0.536808	-0.0541246	0.0225223	-0.0014472	-1.42714e+06	4.91715e+06	-1.29114e+06	
23222	0.884695	-1.35602	0.536646	-0.0550237	0.0256201	-0.00226062	444118	565587	-87605.4	
23251	0.884425	-1.35557	0.539189	-0.0547173	0.0260104	-0.00232107	-145419	241897	1.37239e+06	
23282	0.883653	-1.35231	0.537177	-0.0548263	0.0261918	-0.00129178	-417702	1.76229e+06	-1.08861e+06	
23311	0.884352	-1.36462	0.539445	-0.0551647	0.0276192	-0.00217355	378936	-6.67251e+06	1.22986e+06	
23371	0.871041	-1.35552	0.542901	-0.0507069	0.0245412	5.56218e-10	-7.24091e+06	4.94802e+06	1.87976e+06	
23431	0.860747	-1.37227	0.553277	-0.0461194	0.0209408	3.38228e-10	-395076	-9.71912e+06	6.0021e+06	
23461	0.861541	-1.371	0.549992	-0.0463328	0.0156925	0.00324114	435875	700850	-1.80525e+06	
23611	0.858384	-1.37335	0.550961	-0.0288555	0.0235809	3.62667e-11	-638912	321143	-2.00591e+06	
23672	0.85867	-1.38014	0.553595	-0.0287449	0.0234904	3.54095e-10	159757	-3.7953e+06	1.47161e+06	
23701	0.856971	-1.38195	0.552588	-0.0286682	0.0216686	0.000706374	-953215	-1.01298e+06	-564667	
23732	0.848427	-1.38191	0.550404	-0.0291829	0.0211216	0.000401454	-4.80483e+06	21734.9	-1.22839e+06	
23761	0.848427	-1.38191	0.550404	-0.0359577	0.0211523	-0.00133057	-4.80483e+06	21734.9	-1.22839e+06	
23821	0.85193	-1.37716	0.549564	-0.0276261	-0.0109215	1.03346e-10	2.17075e+06	-1.31296e+06	-145782	
23881	0.849568	-1.38052	0.550273	-0.0220254	0.0193344	5.18742e-10	-1.34307e+06	-1.90585e+06	403070	
23912	0.849568	-1.38052	0.550273	-0.0246444	0.015618	0.000785988	-1.34307e+06	-1.90585e+06	403070	
23941	0.848985	-1.38628	0.550965	-0.025692	0.0141315	0.00110038	-333332	-3.29481e+06	395678	
23972	0.849557	-1.38576	0.551241	-0.025772	0.0133407	0.00119535	328548	293945	158765	
24001	0.850085	-1.38594	0.552324	-0.0256932	0.0134113	0.00123345	303610	-102133	623169	
24061	0.843614	-1.40448	0.554543	-0.0265001	0.0182885	3.1846e-10	-3.73451e+06	-1.0696e+07	1.28098e+06	
24092	0.824537	-1.39155	0.55082	-0.029525	0.00962473	0.00103759	-1.10479e+07	7.48765e+06	-2.15606e+06	
24121	0.822139	-1.39543	0.551457	-0.0384738	0.0156897	-0.000708812	-1.39196e+06	-2.25425e+06	369428	
24152	0.823704	-1.4015	0.553027	-0.0395595	0.0139314	-0.000420659	910818	-3.53605e+06	913962	
24181	0.824994	-1.40788	0.553784	-0.0388764	0.0112794	0.000264813	752716	-3.72146e+06	441761	
24211	0.825266	-1.40033	0.551049	-0.0388312	0.0110561	0.000291319	-1.12446e+06	5.88525e+06	-2.01732e+06	
24271	0.827967	-1.40422	0.552662	-0.0327292	0.019467	3.27577e-10	1.5873e+06	-2.28403e+06	947898	
24302	0.821637	-1.4037	0.553246	-0.0313959	0.0175484	0.000796235	-3.72971e+06	306867	344512	
24331	0.821164	-1.40963	0.553821	-0.0344169	0.0177969	0.00107529	-279515	-3.5042e+06	339533	
24362	0.818391	-1.42194	0.554916	-0.0344756	0.0170611	0.00114659	-1.64475e+06	-7.29841e+06	649325	
24391	0.821284	-1.41452	0.550239	-0.034821	0.0155284	0.00128295	1.72021e+06	4.41053e+06	-2.78055e+06	
24421	0.82141	-1.4201	0.551586	-0.0344598	0.0164546	0.000699034	75161.7	-3.32893e+06	802881	
24451	0.820706	-1.41084	0.553171	-0.0344417	0.0156557	0.000891726	-420437	5.53262e+06	946846	
24482	0.821802	-1.4148	0.553785	-0.0345552	0.0171495	0.00114737	655967	-2.37113e+06	367392	
24542	0.810106	-1.42347	0.565327	-0.0239569	0.00522709	8.28839e-11	-3.09686e+06	-6.44617e+06	3.03854e+06	
24571	0.811534	-1.41964	0.562862	-0.024793	0.00348662	0.000820407	861892	2.30975e+06	-1.48719e+06	
24601	0.801485	-1.4199	0.571091	-0.0245345	0.00417955	0.000374251	-6.0769e+06	-156453	4.97618e+06	
24631	0.802127	-1.42361	0.564338	-0.0267222	0.00412322	0.00216568	389315	-2.24473e+06	-4.09266e+06	
24661	0.802127	-1.42361	0.564338	-0.0262316	0.00129487	-0.00299108	389315	-2.24473e+06	-4.09266e+06	
24691	0.802541	-1.42656	0.565966	-0.0259279	-0.000456021	-0.00618336	251336	-1.79759e+06	990016	
24722	0.800985	-1.41882	0.565352	-0.025747	-0.00175029	-0.00547054	-948952	4.71868e+06	-374008	
24751	0.802962	-1.42467	0.567591	-0.0264302	0.00164716	-0.00573983	1.20908e+06	-3.57587e+06	1.36886e+06	
24782	0.803135	-1.42423	0.565968	-0.0255597	-0.000927463	-0.00475425	105552	270589	-995098	
24841	0.802659	-1.4255	0.565318	0.000668222	-0.0249535	-0.00794852	-292165	-777506	-399396	
24872	0.801477	-1.42893	0.566288	0.000571808	-0.0252101	-0.00808032	-730463	-2.12272e+06	599491	
24901	0.801477	-1.42893	0.566288	-0.000326662	-0.027821	-0.00734294	-730463	-2.12272e+06	599491	
24932	0.795122	-1.42165	0.563711	-0.000940251	-0.0296041	-0.00683937	-3.9413e+06	4.51868e+06	-1.59829e+06	
24961	0.794409	-1.41882	0.56295	-0.00389622	-0.0262151	-0.00803809	-443533	1.75716e+06	-473125	
24992	0.793587	-1.41812	0.562197	-0.00422887	-0.0248972	-0.00839293	-512577	433223	-469243	
25021	0.79515	-1.41804	0.561731	-0.00461331	-0.0245723	-0.00874486	976528	54697.7	-291178	
25052	0.79476	-1.42332	0.56373	-0.00385161	-0.0245297	-0.00897198	-244281	-3.31045e+06	1.25203e+06	
25081	0.788592	-1.42399	0.56494	-0.00386627	-0.0247283	-0.00889686	1.40102e+06	-1.29254e+06	145591	
25201	0.784349	-1.41612	0.564042	-0.0139882	-0.00552858	1.5664e-11	413434	-2.61751e+06	702146	
25261	0.784325	-1.41448	0.565063	-0.00926655	-0.010955	5.25593e-10	-14996.4	1.04726e+06	649645	
25321	0.786409	-1.42621	0.565531	-0.0112449	-0.010593	3.84532e-10	1.33265e+06	-7.50382e+06	298831	
25352	0.785973	-1.41857	0.564318	-0.0108051	-0.0130692	9.86146e-05	-280432	4.90807e+06	-778829	
25381	0.785973	-1.41857	0.564318	-0.0111416	-0.00717953	-0.00083598	-280432	4.90807e+06	-778829	
25411	0.784548	-1.42822	0.564481	-0.0111753	-0.00659056	-0.000929439	-919330	-6.23355e+06	105357	
25441	0.781837	-1.42217	0.562282	-0.0113132	-0.0075256	-0.000913636	-1.75434e+06	3.91372e+06	-1.42297e+06	
25472	0.777436	-1.41458	0.56249	-0.0117342	-0.0065863	-0.00125515	-2.85335e+06	4.92238e+06	135059	
25501	0.777406	-1.41892	0.563121	-0.0126758	-0.00496192	-0.00121058	-19424.3	-2.81694e+06	410028	
25532	0.777554	-1.42519	0.56416	-0.0126828	-0.00597602	-0.00106297	96076.4	-4.08476e+06	676690	
25561	0.77774	-1.41945	0.56341	-0.012654	-0.00720145	-0.000859962	121573	3.74818e+06	-489424	
25622	0.777201	-1.42256	0.564607	-0.0161195	-0.00283247	2.38208e-11	-1.19816e+06	1.47484e+06	-104525	
25651	0.778938	-1.42638	0.563792	-0.0162273	-0.00269973	-9.40723e-06	1.14282e+06	-2.51496e+06	-536430	
25711	0.776468	-1.41813	0.564847	-0.0142957	-0.0127624	3.68765e-11	-1.64616e+06	2.52177e+06	-149427	
25742	0.775517	-1.40934	0.563065	-0.0144439	-0.0125355	-1.34484e-05	-630356	5.82532e+06	-1.18038e+06	
25831	0.775781	-1.41259	0.563888	-0.0117603	-0.0025903	1.53745e-09	175622	-2.15731e+06	546316	
25862	0.767298	-1.4254	0.565619	-0.0116812	-0.00356109	0.000245844	-5.6674e+06	-8.55904e+06	1.15683e+06	
25922	0.765232	-1.42237	0.565475	-0.0141505	-0.0110052	1.13425e-10	-800412	-1.32958e+06	404457	
25982	0.751797	-1.41644	0.570465	-0.0213148	-0.0116441	5.98657e-11	-9.07967e+06	2.50067e+06	3.39434e+06	
26011	0.739694	-1.4142	0.5689	-0.0251283	-0.0105938	0.00142562	-8.17987e+06	1.51113e+06	-1.05763e+06	
26042	0.731514	-1.40391	0.568711	-0.0295454	-0.0097778	0.000854503	-5.53989e+06	6.9728e+06	-127598	
26071	0.728603	-1.41663	0.571429	-0.0337003	-0.00454821	0.000758805	-1.97505e+06	-8.62956e+06	1.84373e+06	
26102	0.72747	-1.4261	0.572656	-0.0351816	-0.0110204	0.0021416	-770230	-6.44043e+06	834131	
26131	0.730447	-1.40803	0.568006	-0.0355513	-0.0141118	0.00254198	2.03018e+06	1.23255e+07	-3.17108e+06	
26162	0.745658	-1.41312	0.566219	-0.0345159	-0.00782577	0.000924735	1.03978e+07	-3.48439e+06	-1.2216e+06	
26222	0.739344	-1.42918	0.571548	-0.0274423	-0.0121887	3.66102e-10	-4.32604e+06	-1.10033e+07	3.65143e+06	
26251	0.752618	-1.42309	0.569947	-0.0305571	-0.0201111	0.00262903	9.13072e+06	4.19033e+06	-1.10147e+06	
26282	0.740556	-1.42032	0.574244	-0.0228873	-0.0165912	0.00170379	-8.31383e+06	1.91252e+06	2.96208e+06	
26342	0.736577	-1.42748	0.573675	-0.0310935	-0.00559883	1.29601e-10	1.31686e+06	-4.83942e+06	1.08894e+06	
26371	0.73742	-1.43032	0.572922	-0.0305404	-0.00763139	0.000457354	585680	-1.97103e+06	-523376	
26402	0.73623	-1.42244	0.57243	-0.0301715	-0.00887313	0.000127627	-828641	5.48169e+06	-341905	
26431	0.736685	-1.42733	0.573375	-0.0308924	-0.00410407	-0.00016983	317585	-3.41086e+06	658606	
26491	0.736658	-1.43421	0.574683	-0.0267076	-0.00369806	1.47553e-10	-19039.8	-4.81701e+06	915378	
26522	0.726019	-1.43218	0.567444	-0.0267213	-0.00716631	0.000659072	-7.47022e+06	1.43131e+06	-5.08291e+06	
26582	0.717213	-1.42573	0.558531	-0.0280823	0.00608187	1.7176e-10	-4.83e+06	566590	-7.9783e+06	
26642	0.719316	-1.42185	0.557251	-0.0268759	0.00224036	1.34473e-10	1.07346e+06	1.55434e+06	-1.04283e+06	
26671	0.719316	-1.42185	0.557251	-0.0259098	0.00363926	-0.000938543	1.07346e+06	1.55434e+06	-1.04283e+06	
26702	0.719967	-1.42081	0.556081	-0.025459	0.00429208	-0.00137653	463770	742602	-833147	
26731	0.719967	-1.42081	0.556081	-0.0248607	0.00525004	-0.00245129	463770	742602	-833147	
26762	0.714521	-1.42644	0.547998	-0.0246242	0.00562877	-0.0028762	-3.8956e+06	-4.02474e+06	-5.78223e+06	
26791	0.714521	-1.42644	0.547998	-0.0300001	7.46343e-05	-0.0108557	-3.8956e+06	-4.02474e+06	-5.78223e+06	
26942	0.700251	-1.43304	0.550722	-0.02263	0.00855851	2.45703e-10	173152	936193	-269790	
26971	0.700251	-1.43304	0.550722	-0.0224066	0.0097662	-0.000348028	173152	936193	-269790	
27002	0.702284	-1.43189	0.550273	-0.0222975	0.010356	-0.000517996	1.47942e+06	833304	-326345	
27062	0.691187	-1.43608	0.55061	-0.0145674	0.0155049	2.78653e-10	-399553	-4.19214e+06	969827	
27091	0.691895	-1.43137	0.551235	-0.0148551	0.0124866	0.000698276	518213	3.44982e+06	457999	
27122	0.696136	-1.44264	0.554372	-0.0147618	0.0131076	0.000780715	318971	2.1424e+06	283705	
27182	0.689102	-1.43303	0.550612	-0.0151753	-0.0132057	0.00124032	-2.99559e+06	-1.65502e+06	507843	
27242	0.690768	-1.43572	0.550977	-0.00272103	0.023061	2.5673e-10	1.39238e+06	-247406	340217	
27271	0.690768	-1.43572	0.550977	-0.000172972	0.0226082	0.000622598	1.39238e+06	-247406	340217	
27331	0.677953	-1.4413	0.551831	-0.0195444	0.00324694	0.00214337	-9.53333e+06	-4.15414e+06	634659	
27362	0.675354	-1.44055	0.55467	-0.0252644	0.000754451	0.00252416	-1.94266e+06	566742	2.12281e+06	
27391	0.673598	-1.44625	0.554657	-0.0265466	0.0011285	0.00392522	-1.31536e+06	-4.27194e+06	-10150.3	
27421	0.673854	-1.44299	0.554698	-0.0272963	-0.0013065	0.00391943	191853	2.44784e+06	30769.3	
27482	0.671783	-1.45112	0.557062	0.00329938	0.0210224	3.84151e-10	-1.1094e+06	-2.95186e+06	1.36801e+06	
27511	0.67284	-1.44796	0.554563	0.00250062	0.0188971	0.00098497	798147	2.38733e+06	-1.88827e+06	
27542	0.67284	-1.44967	0.554166	0.00295556	0.0202579	-9.13448e-05	-35.2746	-1.29436e+06	-300398	
27571	0.659022	-1.45641	0.543248	0.00295555	0.0198307	-0.000190476	-1.04948e+07	-5.12108e+06	-8.29326e+06	
27602	0.658571	-1.45757	0.543344	-0.0030265	0.0169117	-0.00491763	-343090	-876077	73089.1	
27631	0.660605	-1.45089	0.541785	-0.00328382	0.0162547	-0.00486282	1.54967e+06	5.088e+06	-1.1877e+06	
27662	0.660024	-1.45499	0.547824	-0.00235402	0.0193075	-0.00557544	-443935	-3.13355e+06	4.61366e+06	
27811	0.66143	-1.45717	0.54779	-0.00276783	0.00939247	2.7759e-10	917905	-5.83021e+06	703770	
27842	0.660726	-1.46206	0.541404	-0.00210693	0.00519472	0.000506715	-544918	-3.7856e+06	-4.94152e+06	
27901	0.677878	-1.46035	0.521252	0.00304699	0.00996354	1.96056e-11	2.32986e+06	5.46487e+06	-1.52765e+06	
27932	0.666566	-1.45583	0.522915	0.00402553	0.0122588	-0.000641612	-8.81673e+06	3.51583e+06	1.29625e+06	
27961	0.649582	-1.45467	0.532107	-0.0012645	0.0143683	0.000136139	-1.32588e+07	910526	7.17613e+06	
27992	0.658072	-1.46021	0.530816	-0.0127997	0.0151604	0.00637937	6.63806e+06	-4.33689e+06	-1.00958e+06	
28021	0.655035	-1.45493	0.527114	-0.00782111	0.0119078	0.00562219	-2.38011e+06	4.13997e+06	-2.90133e+06	
28052	0.650086	-1.45923	0.526995	-0.00882076	0.0136466	0.00440363	-3.89002e+06	-3.37624e+06	-93597.4	
28081	0.653829	-1.46257	0.526915	-0.00952096	0.0130388	0.00438678	2.95017e+06	-2.63672e+06	-62910.1	
28112	0.645378	-1.45474	0.52458	-0.0085474	0.0121687	0.00436602	-6.67373e+06	6.18669e+06	-1.84454e+06	
28172	0.656728	-1.47524	0.523135	0.0131182	0.00918565	2.14397e-10	7.69406e+06	-9.41657e+06	-3.94607e+06	
28202	0.656728	-1.47524	0.523135	0.0225818	-0.00239673	-0.00485367	7.69406e+06	-9.41657e+06	-3.94607e+06	
28231	0.650732	-1.46567	0.528094	0.028814	-0.0100242	-0.00804999	-4.76913e+06	7.6123e+06	3.94491e+06	
28262	0.64702	-1.46209	0.525793	0.0282417	-0.00911068	-0.0075766	-2.96451e+06	2.8627e+06	-1.83743e+06	
28291	0.648019	-1.45849	0.518649	0.0279749	-0.00885304	-0.00774197	799584	2.87333e+06	-5.71715e+06	
28322	0.653099	-1.46556	0.517106	0.0282148	-0.00799104	-0.00945711	4.07219e+06	-5.66332e+06	-1.23691e+06	
28351	0.650688	-1.4662	0.518722	0.0301695	-0.0107094	-0.0100508	-1.93562e+06	-510851	1.29814e+06	
28411	0.659925	-1.46885	0.520022	0.000335854	-0.00531029	1.77689e-10	3.26801e+06	-1.45134e+06	3.08287e+06	
28442	0.657682	-1.46705	0.520292	0.00268882	-0.00635526	0.00221967	-1.81126e+06	1.4561e+06	218641	
28501	0.649091	-1.46647	0.519912	0.00514298	0.00671972	3.24927e-10	-6.95842e+06	469547	-307600	
28531	0.649762	-1.47078	0.521114	0.00347296	0.00683241	-7.38237e-05	546255	-3.5034e+06	977872	
28562	0.649762	-1.47078	0.521114	0.00411208	0.00273344	0.00107029	546255	-3.5034e+06	977872	
28591	0.651345	-1.47325	0.517351	0.00440706	0.0008416	0.00159834	1.29229e+06	-2.0175e+06	-3.07264e+06	
28651	0.641861	-1.46979	0.521627	0.00434279	-0.00395339	7.90779e-11	1.79943e+06	2.23524e+06	-409937	
28682	0.643337	-1.47503	0.518608	0.00509855	-0.00301459	-0.000172173	1.21249e+06	-4.30559e+06	-2.4812e+06	
28741	0.648544	-1.47181	0.518252	0.00459727	0.00438478	2.34661e-10	4.28987e+06	2.65234e+06	-292910	
28772	0.642934	-1.47218	0.517113	0.00639901	0.00549877	-0.000123022	-4.63914e+06	-302852	-941792	
28801	0.642934	-1.47218	0.517113	0.000414519	0.00510809	-0.00133793	-4.63914e+06	-302852	-941792	
28832	0.646638	-1.4779	0.514299	-0.00306484	0.00488095	-0.00204428	3.07321e+06	-4.74516e+06	-2.33591e+06	
28861	0.646519	-1.47788	0.517835	-0.000667735	0.00117973	-0.00386628	-98885.1	14403	2.94057e+06	
28891	0.645896	-1.4791	0.518687	-0.000706301	0.00118534	-0.00271946	-519201	-1.01355e+06	710416	
28921	0.641043	-1.47682	0.521617	-0.00100225	0.00060762	-0.00231452	-4.0544e+06	1.89915e+06	2.4471e+06	
28952	0.643304	-1.47839	0.516922	-0.00428631	0.00214593	-0.000332369	1.89197e+06	-1.31045e+06	-3.92773e+06	
28981	0.643693	-1.47757	0.520326	-0.0029241	0.00120241	-0.00316034	326035	686976	2.85438e+06	
29041	0.643157	-1.47387	0.51872	-0.000467088	-0.00422092	1.49471e-10	1.59417e+06	495191	-110282	
29072	0.642964	-1.47665	0.518493	0.000298112	-0.00398323	-5.29353e-05	-163112	-2.34308e+06	-191811	
29101	0.641176	-1.47098	0.518057	0.000219819	-0.00510791	-0.000145004	-1.51214e+06	4.79653e+06	-368276	
29132	0.643983	-1.47187	0.520131	-0.000460645	-0.00294947	-0.000310729	2.37938e+06	-759097	1.75803e+06	
29161	0.643814	-1.47725	0.52509	0.00110975	-0.00345047	0.00084957	-143604	-4.56542e+06	4.21084e+06	
29221	0.63774	-1.47072	0.52433	-0.000536842	-0.00987487	4.96511e-10	-5.17467e+06	5.56322e+06	-647995	
29252	0.63774	-1.47072	0.52433	-0.0104722	0.000806506	-0.00124415	-5.17467e+06	5.56322e+06	-647995	
29281	0.636047	-1.47298	0.523244	-0.0145085	0.00514581	-0.00174958	-1.44893e+06	-1.93068e+06	-928834	
29312	0.636047	-1.47298	0.523244	-0.0169861	0.00184435	-0.00333789	-1.44893e+06	-1.93068e+06	-928834	
29341	0.631639	-1.46332	0.52267	-0.0174208	0.00126515	-0.00361654	-3.79199e+06	8.30645e+06	-493954	
29372	0.63359	-1.47057	0.523959	-0.019696	0.00624902	-0.00391291	1.68073e+06	-6.24325e+06	1.11052e+06	
29401	0.6329	-1.46563	0.521131	-0.0189397	0.00343955	-0.00341318	-596016	4.26564e+06	-2.44257e+06	
29432	0.636288	-1.47295	0.517411	-0.0192436	0.00561503	-0.00465889	2.93189e+06	-6.33946e+06	-3.21869e+06	
29461	0.630699	-1.4747	0.518664	-0.0173965	0.00162117	-0.00668666	-4.84379e+06	-1.51251e+06	1.08603e+06	
29521	0.620816	-1.46115	0.520684	-0.00128499	0.00747025	1.56371e-10	-2.81186e+06	-4.4491e+06	-3.49355e+06	
29552	0.617781	-1.46435	0.514311	-0.00271903	0.00520121	-0.00178171	-2.648e+06	-2.79241e+06	-5.55914e+06	
29581	0.617781	-1.46435	0.514311	-0.00637328	0.00134768	-0.00945333	-2.648e+06	-2.79241e+06	-5.55914e+06	
29612	0.616568	-1.46128	0.51566	-0.0085976	-0.000997938	-0.014123	-1.06131e+06	2.68268e+06	1.18003e+06	
29641	0.6184	-1.45601	0.511671	-0.00945726	0.00117503	-0.0131672	1.60653e+06	4.62694e+06	-3.49773e+06	
29672	0.620108	-1.45968	0.512591	-0.00883071	0.00297954	-0.0145313	1.50282e+06	-3.23372e+06	808757	
29732	0.628449	-1.45774	0.520075	0.000751675	0.00301566	4.81569e-10	7.35753e+06	1.71457e+06	6.60145e+06	
29761	0.628449	-1.45774	0.520075	0.014216	0.00615333	0.0120807	7.35753e+06	1.71457e+06	6.60145e+06	
29792	0.626082	-1.45918	0.520295	0.0177476	0.00697633	0.0152494	-2.09919e+06	-1.28251e+06	195283	
29852	0.625988	-1.45635	0.516962	-0.00650446	0.0141442	0.0156302	-3.00301e+06	3.92078e+06	589505	
29881	0.624769	-1.45319	0.518342	-0.00902699	0.0174376	0.0161253	-1.08646e+06	2.81717e+06	1.22935e+06	
29911	0.626268	-1.45609	0.517949	-0.00961368	0.0189589	0.0167892	1.33979e+06	-2.58904e+06	-351281	
29941	0.624262	-1.45525	0.517937	-0.00909116	0.0179492	0.0166522	-1.79693e+06	750004	-10719.1	
29972	0.624184	-1.4577	0.516122	-0.0100615	0.0183542	0.0166464	-69356.6	-2.20195e+06	-1.62804e+06	
30061	0.626798	-1.45661	0.517589	0.00978643	-0.00186496	1.80856e-10	-1.34563e+06	-344422	-1.04871e+06	
30092	0.627411	-1.45563	0.517271	0.00934237	-0.00197862	-0.000346073	554217	888482	-287832	
30121	0.625845	-1.45851	0.518878	0.00940888	-0.001872	-0.000380613	-1.41988e+06	-2.61346e+06	1.45709e+06	
30152	0.626291	-1.45818	0.519356	0.00881253	-0.00296966	0.000231366	404646	297594	434633	
30181	0.620059	-1.45634	0.516666	0.00903104	-0.00280896	0.000466068	-5.66923e+06	1.67312e+06	-2.44749e+06	
30211	0.620059	-1.45634	0.516666	0.000867348	-0.000399656	-0.00305832	-5.66923e+06	1.67312e+06	-2.44749e+06	
30241	0.621307	-1.46113	0.521376	-0.00134365	0.000252863	-0.00401284	1.13997e+06	-4.37599e+06	4.30344e+06	
30271	0.61981	-1.4553	0.514996	-0.00110426	-0.000666095	-0.00310912	-1.37129e+06	5.33983e+06	-5.84276e+06	
30301	0.619904	-1.4563	0.514159	-0.00143337	0.000615463	-0.00451138	86703.5	-915750	-768538	
30361	0.609051	-1.45392	0.521141	0.00595371	-0.0047815	4.4039e-11	-4.62006e+06	5.16056e+06	1.42504e+06	
30391	0.609286	-1.45583	0.523544	0.00332027	-0.00183998	0.000812272	216710	-1.75971e+06	2.21675e+06	
30482	0.609334	-1.45261	0.521224	0.00300448	-0.0122548	1.30113e-10	-484492	-331831	1.46164e+06	
30511	0.612041	-1.45525	0.520309	0.00275739	-0.012424	0.000745434	2.51718e+06	-2.45664e+06	-851343	
30541	0.607736	-1.44696	0.514061	0.00351255	-0.013161	0.000490031	-4.01256e+06	7.72631e+06	-5.82386e+06	
30572	0.606887	-1.44636	0.516427	0.00134577	-0.00898879	-0.00265485	-792575	558176	2.20919e+06	
30601	0.607036	-1.44615	0.514089	0.000751334	-0.00857016	-0.000997963	139832	199735	-2.18555e+06	
30631	0.604201	-1.45099	0.517025	0.000847818	-0.00843234	-0.00250599	-2.65609e+06	-4.54097e+06	2.75032e+06	
30661	0.60134	-1.45045	0.515135	-0.000506789	-0.0107482	-0.00110333	-2.68648e+06	509695	-1.77532e+06	
30692	0.60134	-1.45045	0.515135	-0.00437532	-0.0100143	-0.00365979	-2.68648e+06	509695	-1.77532e+06	
30721	0.605722	-1.44979	0.516596	-0.00630959	-0.0096473	-0.00493802	4.12906e+06	619930	1.37755e+06	
30752	0.602334	-1.45161	0.517674	-0.0027173	-0.00910796	-0.00373955	-3.19835e+06	-1.71403e+06	1.01679e+06	
30781	0.601417	-1.45289	0.51642	-0.00425251	-0.00993069	-0.00325149	-868040	-1.21063e+06	-1.18643e+06	
30811	0.610393	-1.46313	0.519049	-0.00464313	-0.0104755	-0.00378538	8.5126e+06	-9.71684e+06	2.49296e+06	
30875	0.612057	-1.45669	0.515042	0.0135587	-0.00629409	2.6452e-10	1.58325e+06	6.1315e+06	-3.81087e+06	
30901	0.606823	-1.45269	0.518832	0.0147936	-0.00151152	-0.00297248	-4.98951e+06	3.81354e+06	3.61312e+06	
30932	0.608357	-1.45337	0.516241	0.0119496	0.000662198	-0.000913005	1.46629e+06	-655652	-2.47665e+06	
30961	0.608663	-1.45474	0.5182	0.0123015	0.000504841	-0.0015074	292626	-1.31381e+06	1.87684e+06	
31052	0.608154	-1.45641	0.516831	0.00889587	-0.00118511	1.63065e-09	-1.44246e+06	1.13262e+06	-2.35219e+06	
31081	0.60663	-1.45294	0.518214	0.00846314	-0.00084533	-0.000705654	-1.47166e+06	3.34863e+06	1.33576e+06	
31141	0.613825	-1.45175	0.519772	-0.00370282	0.00790266	0.00137812	269882	115335	2.16799e+06	
31201	0.610811	-1.45114	0.522039	-0.00415014	0.0215059	4.39402e-09	-2.9269e+06	586837	2.20168e+06	
31232	0.618638	-1.45914	0.54875	-0.00616971	0.0219108	0.00151916	7.6238e+06	-7.79044e+06	2.60167e+07	
31261	0.627002	-1.44573	0.581793	-0.00273899	0.0184051	0.0132267	8.1654e+06	1.30901e+07	3.22594e+07	
31322	0.631244	-1.42998	0.662303	-0.0123417	0.00810075	4.28212e-10	-1.84358e+06	-4.36975e+06	3.25906e+07	
31351	0.63725	-1.44035	0.699489	-0.0136138	0.00508563	0.0224875	5.89414e+06	-1.0174e+07	3.64957e+07	
31382	0.636876	-1.43461	0.740036	-0.00937002	-0.00223965	0.0487644	-367370	5.6443e+06	3.98707e+07	
31442	0.649518	-1.42699	0.796502	-0.0119006	0.00227352	1.00669e-10	7.81784e+06	3.78911e+06	2.84534e+07	
31471	0.65129	-1.42196	0.836563	-0.00932071	0.00352393	0.00938962	1.75323e+06	4.9787e+06	3.96497e+07	
31531	0.655244	-1.41884	0.882902	-0.00326351	0.008505	1.69534e-10	3.92168e+06	3.09105e+06	4.59599e+07	
31562	0.649898	-1.41333	0.9433	-0.00196936	0.00952505	0.0151668	1.17628e+07	5.31849e+06	3.02893e+07	
31591	0.649898	-1.41333	0.9433	0.012146	0.0159072	0.0515139	1.17628e+07	5.31849e+06	3.02893e+07	
31622	0.631682	-1.41716	0.977331	0.018145	0.0186197	0.0669614	-1.81958e+07	-3.83302e+06	3.39925e+07	
31651	0.653056	-1.41866	1.01022	0.00995694	0.0168948	0.082258	2.1392e+07	-1.49966e+06	3.29203e+07	
31682	0.653056	-1.41866	1.01022	0.0394779	0.0148253	0.127688	2.1392e+07	-1.49966e+06	3.29203e+07	
31742	0.636753	-1.41343	1.08702	-0.0138191	0.0223662	-8.05753e-11	-9.29592e+06	-8.51839e+06	3.6686e+07	
31771	0.646023	-1.41513	1.13201	-0.0213488	0.0154663	0.0297157	9.3416e+06	-1.71619e+06	4.5335e+07	
31802	0.645858	-1.38286	1.14905	-0.0132216	0.0139732	0.0691571	-166602	3.25774e+07	1.71994e+07	
31892	0.646558	-1.37659	1.20301	0.0192683	0.0205445	7.07761e-10	-1.23759e+07	1.35726e+07	2.89482e+06	
31921	0.654561	-1.38599	1.20475	0.0155555	0.0246163	0.000868447	8.14917e+06	-9.57595e+06	1.77432e+06	
31952	0.649311	-1.38654	1.24525	0.0189781	0.0205944	0.00161366	-5.35548e+06	-557165	4.13114e+07	
32012	0.633002	-1.36103	1.25188	0.136678	0.10271	-9.68345e-09	-9.45750e+06	-872148	3.27408e+06	
32041	0.644823	-1.33603	1.35949	0.128734	0.101978	0.00275022	1.21144e+07	2.56182e+07	1.10287e+08	
32101	0.652793	-1.33419	1.2898	0.128679	0.0967375	3.44876e-10	2.56674e+07	-8.75967e+07	-1.28249e+08	
32132	0.627099	-1.33848	1.25134	0.140229	0.057319	-0.0577119	-2.65031e+07	-4.42797e+06	-3.96668e+07	
32161	0.627099	-1.33848	1.25134	0.105245	0.051474	-0.110072	-2.65031e+07	-4.42797e+06	-3.96668e+07	
32192	0.627099	-1.33848	1.25134	0.045613	0.0415111	-0.199323	-2.65031e+07	-4.42797e+06	-3.96668e+07	
32221	0.653532	-1.3439	1.29953	0.0241454	0.0379244	-0.231453	2.7397e+07	-5.61393e+06	4.99429e+07	
32252	0.64291	-1.32724	1.30017	0.046337	0.0333771	-0.190999	-1.10306e+07	1.73056e+07	664904	
32341	0.651403	-1.34521	1.34471	0.101169	0.0760381	8.26859e-11	7.52668e+06	3.09282e+06	-1.12505e+06	
32371	0.651403	-1.34521	1.34471	0.109975	0.0796567	-0.00131631	7.52668e+06	3.09282e+06	-1.12505e+06	
32402	0.646942	-1.33691	1.35064	0.114039	0.0813268	-0.00192384	-4.67864e+06	8.70371e+06	6.21475e+06	
32462	0.653547	-1.34822	1.35066	0.0227207	0.0246166	3.41208e-10	6.94361e+06	-1.18939e+07	23691.6	
32551	0.645974	-1.33505	1.35226	0.00732111	0.00595168	1.2183e-10	-1.99035e+06	4.05193e+06	2.40044e+06	
32582	0.642042	-1.32616	1.39072	0.00636574	0.00789661	0.00115221	-4.17021e+06	9.42729e+06	4.07868e+07	
32611	0.643226	-1.3284	1.38999	0.00398872	0.0132702	0.0244007	1.25788e+06	-2.37745e+06	-776194	
32671	0.644941	-1.32902	1.38924	0.00346808	0.00291089	3.95203e-10	1.82552e+06	-664638	-798140	
32731	0.639904	-1.32885	1.39669	0.00330601	0.00437568	1.58877e-10	-1.23475e+06	2.61267e+06	-130409	
32761	0.639897	-1.32978	1.3962	0.00308375	0.00484596	-2.34735e-05	-1.98432e+06	2.81916e+06	167767	
32851	0.63925	-1.32882	1.39618	0.000348168	-0.00127097	7.20144e-11	-1.21964e+06	1.78014e+06	-99974.3	
32882	0.63925	-1.32882	1.39618	-0.000969038	0.000651582	-0.000107972	-1.21964e+06	1.78014e+06	-99974.3	
32942	0.635898	-1.32798	1.42643	-0.000695606	-0.00207217	2.49735e-10	-2.26403e+06	3.98223e+06	-76463	
32971	0.637631	-1.32973	1.43417	-0.00218987	0.000556106	-5.04653e-05	1.88207e+06	-1.90629e+06	8.40155e+06	
33002	0.637606	-1.33193	1.43427	-0.00145586	-0.000187346	0.00322614	-27466.8	-2.39022e+06	103076	
33031	0.64089	-1.33677	1.43368	-0.00146328	-0.000832705	0.00325397	3.58047e+06	-5.27687e+06	-638180	
33062	0.638753	-1.33356	1.43416	0.00079242	-0.00415713	0.00285192	-2.33269e+06	3.50315e+06	520262	
33091	0.639443	-1.33525	1.43425	-0.000397251	-0.00237052	0.00311725	755363	-1.84997e+06	97801.3	
33122	0.639443	-1.33525	1.43425	0.000690471	-0.00503449	0.00325808	755363	-1.84997e+06	97801.3	
33182	0.640982	-1.33825	1.44951	-0.000139484	-0.00262456	1.83711e-10	4.62025e+06	-7.58613e+06	1.68124e+07	
33211	0.641138	-1.33883	1.44963	0.00221684	-0.00649348	0.00857432	171935	-638996	130631	
33242	0.636504	-1.33791	1.4478	0.00226327	-0.00666601	0.00860959	-5.11802e+06	1.01007e+06	-2.02744e+06	
33271	0.636451	-1.33696	1.44772	-0.000500466	-0.00612057	0.00751477	-58751.3	1.05073e+06	-87431.8	
33302	0.638564	-1.33979	1.44786	-0.000553342	-0.00517492	0.00743609	2.33934e+06	-3.13155e+06	160423	
33331	0.637626	-1.33987	1.44721	0.00113098	-0.00742964	0.00755159	-1.04081e+06	-89369.1	-727557	
33362	0.637626	-1.33987	1.44721	-0.000586363	-0.0075771	0.00635112	-1.04081e+06	-89369.1	-727557	
33391	0.637245	-1.33881	1.4473	-0.00121085	-0.00763072	0.00591459	-424140	1.17664e+06	100499	
33421	0.636901	-1.33856	1.44812	-0.00141444	-0.00706593	0.00596283	-383538	278521	923172	
33451	0.637904	-1.33776	1.45226	-0.00155251	-0.00696567	0.00629517	1.12052e+06	904850	4.62349e+06	
33511	0.633477	-1.34057	1.45019	6.8852e-11	4.68716e-10	1.75938e-10	-3.95207e+06	-4.61087e+06	-2.05969e+06	
33542	0.631897	-1.34223	1.45197	-0.00142275	-0.00165991	-0.000741489	-1.77663e+06	-1.87192e+06	1.99882e+06	
33571	0.634685	-1.34358	1.45188	-0.00254203	-0.00283922	0.000517766	3.13829e+06	-1.51668e+06	-100322	
33602	0.636601	-1.34841	1.45129	-0.000188306	-0.00397673	0.000442524	2.16077e+06	-5.44082e+06	-656557	
33631	0.636601	-1.34841	1.45129	0.00331214	-0.0127909	-0.000621098	2.16077e+06	-5.44082e+06	-656557	
33751	0.637606	-1.34511	1.46468	0.000271811	-0.00186773	1.65542e-10	5.0525e+06	-5.80858e+06	933096	
33811	0.63574	-1.34601	1.46478	-0.000129317	-0.00260442	1.26693e-10	-643260	-3.61456e+06	-3.65309e+06	
33871	0.63696	-1.34871	1.46502	-0.000266527	-0.00231122	1.63963e-10	1.29537e+06	236008	189853	
33991	0.634243	-1.34653	1.45909	0.000569267	-0.00195557	2.75622e-10	-2.62257e+06	4.5869e+06	-987994	
34051	0.633626	-1.34569	1.46113	0.000349292	-0.00206606	3.08605e-10	1.02359e+06	5.99714e+06	-3.6623e+06	
34082	0.633905	-1.34764	1.4625	0.00127053	0.00333136	-0.00329607	322460	-2.26078e+06	1.58498e+06	
34111	0.633905	-1.34764	1.4625	0.00184128	-0.00067022	-0.000490662	322460	-2.26078e+06	1.58498e+06	
34142	0.620075	-1.34359	1.47193	0.0020928	-0.00243363	0.00074562	-1.60959e+07	4.71699e+06	1.09745e+07	
34171	0.618925	-1.34987	1.47263	0.00112704	-0.00215061	0.00140409	-1.37543e+06	-2.77173e+06	57302.7	
34202	0.62052	-1.34854	1.47666	0.00054936	-0.00331474	0.00142816	1.86392e+06	1.54574e+06	4.71461e+06	
34231	0.620672	-1.34383	1.47781	0.00127629	-0.0027119	0.00326686	178072	5.52143e+06	1.34541e+06	
34262	0.619919	-1.3481	1.48122	0.00137245	0.000269673	0.00399338	-883140	-5.00441e+06	3.99606e+06	
34291	0.619919	-1.3481	1.48122	0.00012722	-0.00678654	0.00962781	-883140	-5.00441e+06	3.99606e+06	
34351	0.618543	-1.35301	1.47914	-0.000820389	-0.00154986	3.37673e-11	-802864	-6.07208e+06	-700899	
34382	0.618543	-1.35301	1.47914	-0.00163931	-0.00774338	-0.000714917	-802864	-6.07208e+06	-700899	
34411	0.620063	-1.35358	1.47968	-0.00171157	-0.00828987	-0.000777998	-564312	-126910	-157893	
34442	0.620063	-1.35358	1.47968	-0.00228717	-0.00841932	-0.000939049	-564312	-126910	-157893	
34502	0.616822	-1.36359	1.47611	-0.000347061	-0.000999435	2.2136e-10	722967	-6.1448e+06	-672153	
34531	0.616216	-1.36038	1.47563	-0.00015186	-0.00265853	-0.000181481	-722336	3.82479e+06	-573607	
34562	0.616191	-1.36013	1.47608	-0.000520252	-0.00070789	-0.000474021	-29452.1	294966	541808	
34591	0.616191	-1.36013	1.47608	-0.000560896	-0.000300837	0.000273674	-29452.1	294966	541808	
34621	0.616191	-1.36013	1.47608	-0.000628046	0.000371684	0.001509	-29452.1	294966	541808	
34651	0.615595	-1.35561	1.47692	-0.000648368	0.000575211	0.00188284	-715500	5.42181e+06	1.013e+06	
34711	0.622477	-1.34791	1.46491	-0.00110787	-0.00307831	1.24615e-10	7.92211e+06	1.46257e+07	-1.47141e+07	
34741	0.621853	-1.34605	1.46089	0.00174409	0.00218695	-0.00529708	-752592	2.23711e+06	-4.8477e+06	
34771	0.615586	-1.35265	1.46134	0.00138284	0.00326076	-0.00762398	-7.57015e+06	-7.96659e+06	543240	
34802	0.612204	-1.35587	1.46061	-0.00361346	-0.00199719	-0.00726544	-4.09081e+06	-3.90053e+06	-886275	
34831	0.620936	-1.35473	1.47322	-0.00520888	-0.00351839	-0.00761109	1.05862e+07	1.38092e+06	1.52941e+07	
34892	0.623377	-1.35023	1.47303	-6.06618e-05	-0.0017943	7.72674e-11	480813	595832	1.02089e+06	
34921	0.622402	-1.3507	1.47463	0.000198977	-0.00147255	0.000551281	-1.18674e+06	-570454	1.94996e+06	
34951	0.623776	-1.34989	1.47691	-0.00037066	-0.00174637	0.00148726	1.67643e+06	991261	2.78226e+06	
35011	0.622442	-1.35139	1.47512	-0.000110145	-0.00156146	1.1996e-10	875733	3.57301e+06	133315	
35042	0.619642	-1.34817	1.47344	4.74865e-05	-0.000918315	2.39967e-05	-3.43749e+06	3.94970e+06	-2.05322e+06	
35071	0.619642	-1.34817	1.47344	-0.00356187	0.00322888	-0.00213188	-3.43749e+06	3.94970e+06	-2.05322e+06	
35162	0.622391	-1.34835	1.46718	-0.00121395	-0.00231942	8.3503e-11	-600155	2.44434e+06	-5.10236e+06	
35191	0.620552	-1.35005	1.46675	-0.00162805	-0.000632821	-0.00352063	-2.27456e+06	-2.10143e+06	-533536	
35222	0.623237	-1.35573	1.46787	-0.0031975	-0.00208281	-0.00388877	3.32693e+06	-7.04259e+06	1.38535e+06	
35251	0.622199	-1.35523	1.46877	-0.00120134	-0.00630837	-0.00305756	-1.28817e+06	623535	1.11425e+06	
35341	0.62349	-1.36134	1.47988	-0.00114991	-0.001721	1.5144e-10	2.41094e+06	-4.87956e+06	9.32153e+06	
35372	0.625072	-1.35973	1.47962	-0.000137317	-0.00377041	0.00391504	1.9772e+06	2.01662e+06	-323800	
35401	0.624037	-1.35728	1.47857	0.000455845	-0.00316543	0.0038179	-1.29622e+06	3.06405e+06	-1.31535e+06	
35432	0.625714	-1.35705	1.4781	0.000105866	-0.00233813	0.00346276	2.10456e+06	288531	-590383	
35492	0.624783	-1.35655	1.47788	-0.000687958	-0.00180893	3.08375e-10	-1.17046e+06	628236	-276822	
35521	0.62393	-1.35687	1.47768	-0.00163603	-0.00130006	-0.000224225	-1.07433e+06	-394934	-254959	
35552	0.622911	-1.35727	1.47633	-0.00234509	-0.00156072	-0.000392498	-1.28636e+06	-507279	-1.69677e+06	
35581	0.622911	-1.35727	1.47633	-0.00435182	-0.00235207	-0.00303946	-1.28636e+06	-507279	-1.69677e+06	
35611	0.622911	-1.35727	1.47633	-0.00751626	-0.00359998	-0.00721351	-1.28636e+06	-507279	-1.69677e+06	
35641	0.6418	-1.36336	1.49404	-0.00828808	-0.00390435	-0.00823157	2.39678e+07	-7.72817e+06	2.2466e+07	
35672	0.626117	-1.35141	1.48091	-0.00469291	-0.00506357	-0.00486167	-1.99514e+07	1.51987e+07	-1.66953e+07	
35792	0.624598	-1.35163	1.47798	-0.00125384	-0.00213656	1.744e-10	-806016	-1.05648e+06	2.08554e+06	
35821	0.624178	-1.35195	1.47855	-0.00154401	-0.0025169	0.000750796	-538474	-420724	739581	
35852	0.627026	-1.35526	1.48016	-0.00157631	-0.00254214	0.000795171	3.66005e+06	-4.24429e+06	2.06726e+06	
35972	0.631175	-1.34909	1.48061	0.000285016	-0.00188835	1.22649e-10	5.18196e+06	5.42628e+06	835711	
36001	0.627675	-1.35004	1.48131	0.00292782	0.000879051	0.000426213	-4.53209e+06	-1.22582e+06	909506	
36032	0.627545	-1.34854	1.48103	0.000344523	0.000180334	0.000944631	-168497	1.953e+06	-359582	
36061	0.627545	-1.34854	1.48103	0.000101887	0.00299265	0.000426833	-168497	1.953e+06	-359582	
36092	0.627545	-1.34854	1.48103	-0.000297452	0.00762126	-0.000425375	-168497	1.953e+06	-359582	
36151	0.625551	-1.34952	1.48201	-0.00104781	-0.00169867	2.59872e-10	-2.60123e+06	-1.28679e+06	1.27428e+06	
36182	0.625551	-1.34952	1.48201	-0.00596412	-0.00413071	0.00240839	-2.60123e+06	-1.28679e+06	1.27428e+06	
36271	0.627701	-1.3542	1.48219	0.000358529	-0.0015956	3.01076e-10	219566	-4.23444e+06	-774811	
36302	0.627516	-1.35428	1.48242	0.000430985	-0.00299297	-0.000255687	-691978	2.70241e+06	247034	
36331	0.627932	-1.35394	1.48243	0.000161114	-0.00193902	-0.000159344	547749	452178	15109.5	
36362	0.628959	-1.35673	1.48277	0.000374736	-0.00176268	-0.000153451	1.35701e+06	-3.6935e+06	439169	
36391	0.628959	-1.35673	1.48277	0.00208456	-0.00641648	0.000399902	1.35701e+06	-3.6935e+06	439169	
36422	0.625339	-1.35606	1.48566	0.00245096	-0.00741373	0.000518477	-274939	-2.85916e+06	-293029	
36481	0.623515	-1.35526	1.4812	-0.000502767	-0.00116084	2.92778e-10	-2.42263e+06	1.06588e+06	-5.92672e+06	
36511	0.623515	-1.35526	1.4812	-0.00537225	0.000981579	-0.0119127	-2.42263e+06	1.06588e+06	-5.92672e+06	
36541	0.623515	-1.35526	1.4812	-0.0124221	0.00408329	-0.0291595	-2.42263e+06	1.06588e+06	-5.92672e+06	
36571	0.623158	-1.35503	1.48201	-0.013803	0.00469084	-0.0325377	-476875	297635	1.08104e+06	
36602	0.623412	-1.3536	1.48122	-0.0142322	0.00495871	-0.0315648	338818	1.91768e+06	-1.05283e+06	
36631	0.623412	-1.3536	1.48122	-0.0136325	0.00835301	-0.0334283	338818	1.91768e+06	-1.05283e+06	
36661	0.623412	-1.3536	1.48122	-0.0127278	0.0134732	-0.0362393	338818	1.91768e+06	-1.05283e+06	
36692	0.623412	-1.3536	1.48122	-0.0115183	0.0203194	-0.0399979	338818	1.91768e+06	-1.05283e+06	
36721	0.623412	-1.3536	1.48122	-0.0100037	0.0288914	-0.0447041	338818	1.91768e+06	-1.05283e+06	
36752	0.620215	-1.35736	1.48542	-0.00980045	0.030042	-0.0453358	-4.31251e+06	-5.06891e+06	5.66478e+06	
36781	0.622959	-1.35551	1.48489	-0.0105767	0.0291296	-0.0443161	2.45002e+06	7.1969e+06	-167516	
36811	0.621842	-1.35145	1.48505	-0.00940069	0.0325841	-0.0443965	-1.51269e+06	5.50669e+06	206156	
36841	0.622464	-1.35578	1.48459	-0.00953683	0.0330797	-0.0443779	477479	-2.81558e+06	-588318	
36871	0.622293	-1.35916	1.48441	-0.00936494	0.0320661	-0.0445897	-232875	-4.59234e+06	-248122	
36902	0.625617	-1.35418	1.48415	-0.00937891	0.0317906	-0.0446046	4.11593e+06	230667	-516116	
36931	0.625209	-1.35224	1.485	-0.00789718	0.0318736	-0.0447904	-555745	2.64277e+06	1.1643e+06	
36991	0.62641	-1.3529	1.48455	-0.000967297	-0.0012325	1.91324e-10	63513.1	1.47004e+06	163465	
37022	0.626216	-1.35202	1.48536	-0.000950149	-0.000835588	4.41358e-05	-266339	1.20851e+06	1.10861e+06	
37051	0.626222	-1.35506	1.48451	-0.00108598	-0.000219247	0.000609526	8749.68	-4.178e+06	-1.17284e+06	
37082	0.626222	-1.35506	1.48451	-0.00107338	-0.00623557	-0.00107936	8749.68	-4.178e+06	-1.17284e+06	
37111	0.626222	-1.35506	1.48451	-0.00105317	-0.0158868	-0.00378862	8749.68	-4.178e+06	-1.17284e+06	
37142	0.638129	-1.36065	1.50204	-0.00105291	-0.0160121	-0.00382381	1.703e+07	-6.04742e+06	2.44529e+07	
37171	0.638818	-1.36065	1.50002	0.00252339	-0.0172821	0.0013113	951225	13249	-2.79296e+06	
37202	0.638818	-1.36065	1.50002	0.00360779	-0.0172669	-0.00187267	951225	13249	-2.79296e+06	
37322	0.624439	-1.35168	1.48275	-8.25532e-05	-0.00108026	9.29988e-11	-114129	156798	112184	
37351	0.624346	-1.35338	1.48271	-0.000120216	-0.00102851	3.70207e-05	-129722	-2.37188e+06	-57654.3	
37382	0.624346	-1.35338	1.48271	-0.000283666	-0.00401708	-3.56237e-05	-129722	-2.37188e+06	-57654.3	
37411	0.626209	-1.3476	1.48782	-0.000380957	-0.00579599	-7.88644e-05	2.60383e+06	8.08161e+06	7.14007e+06	
37471	0.625628	-1.34866	1.488	2.95417e-05	-0.00202246	2.50721e-10	-482997	-3.7035e+06	172891	
37502	0.626254	-1.35021	1.4875	-0.000318216	-0.00468898	0.000124482	880179	-2.17595e+06	-707048	
37531	0.626254	-1.35021	1.4875	0.00108127	-0.00814874	-0.000999724	880179	-2.17595e+06	-707048	
37591	0.626265	-1.35144	1.48728	9.85053e-05	-0.00148988	5.56982e-10	14893.3	-1.73484e+06	-315450	
37622	0.626265	-1.35144	1.48728	0.00013693	-0.00596578	-0.000813861	14893.3	-1.73484e+06	-315450	
37711	0.633969	-1.35423	1.48008	0.000854842	-0.00213878	1.43675e-10	4.10304e+06	-755608	3.46026e+06	
37742	0.633924	-1.3541	1.48167	0.00356285	-0.00263748	0.00228377	-63206.5	192800	2.26735e+06	
37771	0.62991	-1.35116	1.48159	0.00354009	-0.00256807	0.00310002	-3.38914e+06	4.03354e+06	1.05031e+06	
37802	0.62991	-1.35116	1.48159	-0.000831902	0.00263519	0.00445492	-3.38914e+06	4.03354e+06	1.05031e+06	
37831	0.630029	-1.35251	1.48186	-0.00225534	0.00432928	0.00489605	170151	-1.929e+06	376131	
37862	0.634484	-1.35066	1.47234	-0.00223492	0.0040978	0.00494118	3.13284e+06	5.89166e+06	-1.5395e+07	
37891	0.634234	-1.34851	1.47222	-0.0011071	0.0062188	-0.000601024	-357789	3.09135e+06	-166367	
37921	0.635352	-1.35109	1.47231	-0.00135398	0.00835183	-0.000715817	1.60481e+06	-3.70909e+06	117844	
37982	0.632001	-1.34888	1.47152	-9.7752e-05	-0.001426	7.00151e-11	1.17416e+06	-1.78051e+06	-174223	
38011	0.632001	-1.34888	1.47152	0.00106466	-0.0031887	-0.00017248	1.17416e+06	-1.78051e+06	-174223	
38042	0.631402	-1.34808	1.47246	0.00176915	-0.00425701	-0.000277014	-866535	1.15735e+06	1.36429e+06	
38071	0.631402	-1.34808	1.47246	0.000495348	-0.0025557	0.0017285	-866535	1.15735e+06	1.36429e+06	
38102	0.631402	-1.34808	1.47246	-0.00158434	0.000221954	0.00500281	-866535	1.15735e+06	1.36429e+06	
38131	0.631402	-1.34808	1.47246	-0.00441791	0.0040065	0.00946405	-866535	1.15735e+06	1.36429e+06	
38161	0.619514	-1.34583	1.4769	-0.00496382	0.00473564	0.0103236	-1.72927e+07	3.28054e+06	6.45434e+06	
38191	0.615339	-1.34521	1.47908	-0.011708	0.00601505	0.0128407	-6.08555e+06	901488	3.18419e+06	
38222	0.61523	-1.34265	1.48055	-0.0160896	0.00666412	0.0151334	-158717	3.73516e+06	2.14119e+06	
38282	0.622639	-1.3424	1.46326	-0.000301499	-0.00128345	4.99544e-11	-1.59067e+06	-3.38114e+06	644046	
38311	0.624731	-1.3439	1.46401	-0.000778698	-0.00229779	0.000193214	3.06928e+06	-2.20972e+06	1.09366e+06	
38342	0.625072	-1.34622	1.4599	0.0013391	-0.0038225	0.000947838	499891	-3.39661e+06	-6.02864e+06	
38371	0.628058	-1.34998	1.46134	0.00142908	-0.00443389	-0.000137317	-2.05851e+06	996426	2.40944e+06	
38402	0.628923	-1.34956	1.46194	0.000502754	-0.0039855	0.000946929	1.27376e+06	616053	884075	
38431	0.62582	-1.34613	1.45974	0.00115237	-0.00367131	0.00139781	-4.57846e+06	5.07032e+06	-3.24319e+06	
38461	0.623178	-1.34524	1.46512	-0.00186941	-0.0003249	-0.0007427	-3.90305e+06	1.31168e+06	7.95719e+06	
38491	0.62252	-1.3431	1.45921	-0.0047967	0.000658861	0.0052252	-973913	3.1715e+06	-8.75702e+06	
38522	0.623394	-1.34397	1.46567	-0.00567322	0.00351321	-0.00265612	1.29529e+06	-1.29833e+06	9.58188e+06	
38551	0.623394	-1.34397	1.46567	-0.00338055	0.00121517	0.0143038	1.29529e+06	-1.29833e+06	9.58188e+06	
38581	0.629669	-1.35031	1.46028	-0.00299196	0.000825674	0.0171784	9.33493e+06	-9.42506e+06	-8.02621e+06	
38611	0.627286	-1.34985	1.46124	0.00232895	-0.00454661	0.0126034	-3.54983e+06	687426	1.4302e+06	
38672	0.621243	-1.34621	1.45959	-0.00102529	-0.00164183	1.1672e-10	-2.77443e+06	-1.39807e+06	1.44525e+06	
38701	0.622796	-1.34629	1.46086	-0.00285641	-0.00256456	0.000953866	2.3235e+06	-129439	1.90927e+06	
38731	0.623854	-1.34465	1.4556	-0.000974376	-0.00266941	0.00250037	1.58535e+06	2.46323e+06	-7.88383e+06	
38851	0.62248	-1.34507	1.45961	-0.000869884	-0.00193093	1.96992e-10	3.53744e+06	-1.37023e+06	471294	
38881	0.621892	-1.34244	1.45952	0.00157095	-0.00287639	0.000325193	-888184	3.96758e+06	-135984	
38972	0.62307	-1.34092	1.45617	-0.000338848	-0.00178501	2.32289e-10	2.23746e+06	-3.40292e+06	-1.75532e+06	
39001	0.62307	-1.34092	1.45617	0.00409132	-0.00852279	-0.00347553	2.23746e+06	-3.40292e+06	-1.75532e+06	
39031	0.61866	-1.34092	1.45518	0.00603791	-0.0114833	-0.00500266	-6.7078e+06	-1416.69	-1.50211e+06	
39062	0.61866	-1.34092	1.45518	-0.00603613	-0.0114859	-0.00770647	-6.7078e+06	-1416.69	-1.50211e+06	
39091	0.622169	-1.33927	1.46022	-0.00684107	-0.0114861	-0.00788672	-6.48572e+06	7.93662e+06	2.6602e+06	
39122	0.621829	-1.33986	1.46226	-0.00917593	-0.00862887	-0.00692905	-519745	-911281	3.1159e+06	
39151	0.623709	-1.34238	1.46016	-0.009441	-0.00909362	-0.00533994	2.87911e+06	-3.85769e+06	-3.21486e+06	
39241	0.619401	-1.3441	1.46336	-0.00130275	-0.00117568	2.72875e-10	-7.81647e+06	3.6151e+06	4.27781e+06	
39301	0.622402	-1.34789	1.46374	-0.000805564	-0.000623067	1.93462e-10	816735	-6.45384e+06	-452233	
39332	0.623045	-1.34612	1.46357	-0.00051154	-0.00294645	-0.000162804	994743	2.72959e+06	-263787	
39361	0.623044	-1.34435	1.46261	-0.00012359	-0.00188191	-0.00026568	-1730.32	2.73939e+06	-1.48707e+06	
39392	0.623101	-1.34381	1.46227	-0.00012468	-0.000156095	-0.00120253	88133	848271	-513063	
39451	0.623595	-1.34458	1.46144	-0.00111877	-0.00226642	1.53913e-10	-107954	-3.6051e+06	-1.03375e+06	
39481	0.623595	-1.34458	1.46144	-0.00123536	-0.00615993	-0.00111645	-107954	-3.6051e+06	-1.03375e+06	
39511	0.623595	-1.34458	1.46144	-0.00144911	-0.013298	-0.00316329	-107954	-3.6051e+06	-1.03375e+06	
39542	0.623719	-1.34189	1.45918	-0.00146207	-0.0137306	-0.00328734	193779	4.21001e+06	-3.54219e+06	
39571	0.623719	-1.34189	1.45918	-0.00127022	-0.00956272	-0.0067941	193779	4.21001e+06	-3.54219e+06	
39602	0.617452	-1.34068	1.45734	-0.00125278	-0.00918382	-0.0071129	-5.38811e+06	3.18029e+06	-7.31115e+06	
39631	0.623084	-1.34349	1.45676	-0.00238429	-0.00851596	-0.00864824	8.84278e+06	-4.40863e+06	-906292	
39662	0.620955	-1.34634	1.45744	0.000533832	-0.00997081	-0.00894732	-3.34774e+06	-4.48156e+06	1.06815e+06	
39751	0.623779	-1.34251	1.45861	0.000617654	-0.00240802	1.78708e-10	492250	2.56881e+06	-120638	
39781	0.62093	-1.34248	1.46092	0.000794864	-0.00148325	-4.34295e-05	-4.50496e+06	53910.2	3.64969e+06	
39812	0.62042	-1.34523	1.45901	-0.000556624	-0.00146708	0.00105148	-809143	-4.36579e+06	-3.0228e+06	
39841	0.623013	-1.34389	1.4614	-0.000750818	-0.00251487	0.000326006	4.11517e+06	2.13454e+06	3.7968e+06	
39902	0.620909	-1.3432	1.45905	0.000273709	-0.00127673	1.57123e-10	-3.25342e+06	-556123	-2.84748e+06	
39931	0.621278	-1.3446	1.45931	0.000176106	-0.00129341	-8.54243e-05	588320	-2.23122e+06	414289	
39991	0.622012	-1.34579	1.4595	0.000585575	-0.00142133	3.92254e-10	1.17203e+06	-1.90014e+06	306853	
40022	0.622012	-1.34579	1.4595	0.00297652	-0.00529761	0.00062598	1.17203e+06	-1.90014e+06	306853	
40052	0.618396	-1.34049	1.45714	0.00378522	-0.00660871	0.000837709	-5.79325e+06	8.47972e+06	-3.78964e+06	
40081	0.61623	-1.34039	1.4578	0.00204725	-0.00406479	-0.000299183	-3.4784e+06	160308	1.05681e+06	
40111	0.61623	-1.34039	1.4578	-0.00212683	-0.00387242	0.000968985	-3.4784e+06	160308	1.05681e+06	
40142	0.619094	-1.34203	1.45544	-0.00264859	-0.00384838	0.00112751	3.98018e+06	906806	-2.48141e+06	
40171	0.619094	-1.34203	1.45544	0.00141119	-0.00292343	-0.00140354	3.98018e+06	906806	-2.48141e+06	
40232	0.622233	-1.34124	1.45356	-2.35872e-05	-0.00188524	4.42364e-10	5.07112e+06	1.27857e+06	-3.0396e+06	
40261	0.621412	-1.3488	1.45417	0.00301908	-0.0011181	-0.00182376	-1.33002e+06	-1.22529e+07	987370	
40321	0.618969	-1.34227	1.45067	0.00107551	-0.00164161	2.24116e-10	-1.07522e+07	8.92681e+06	1.89868e+06	
40352	0.621617	-1.34288	1.45181	-0.00666605	0.00478569	0.00136705	4.30624e+06	-996642	1.85212e+06	
40381	0.622031	-1.34115	1.45263	-0.00421149	0.00421761	0.00242276	674931	2.83202e+06	1.32604e+06	
40441	0.621014	-1.34151	1.45347	0.000296009	-0.00149769	2.73958e-10	-489296	1.0808e+06	1.84524e+06	
40501	0.622654	-1.34295	1.45486	0.000883346	-0.00173045	2.4127e-10	2.68673e+06	-2.35345e+06	2.29121e+06	
40561	0.624376	-1.33805	1.45777	-0.00121155	-0.00215503	8.21921e-11	2.51825e+06	6.22198e+06	7.21299e+06	
40622	0.61946	-1.34394	1.46024	-0.00127286	-0.00201947	9.18291e-11	-1.06436e+06	-2.90412e+06	1.03556e+06	
40651	0.621045	-1.34215	1.45767	-0.00159217	-0.00289071	0.000310669	2.61804e+06	2.96099e+06	-4.2359e+06	
40711	0.61977	-1.34369	1.45956	-0.00040129	-0.000872939	2.02739e-10	-2.11028e+06	-2.55905e+06	3.12203e+06	
40771	0.620023	-1.3423	1.45791	0.000489882	-0.000845663	2.74331e-10	2.95681e+06	-971902	-373927	
40802	0.620688	-1.34441	1.45979	0.00128822	-0.00110808	-0.00010096	2.77752e+06	-1.97381e+06	1.88686e+06	
40862	0.622044	-1.34356	1.4589	0.000563292	-0.00208044	2.12625e-10	2.25921e+06	1.40917e+06	-1.47763e+06	
40892	0.618369	-1.34424	1.46016	0.00246103	-0.000896735	-0.00124121	-6.13621e+06	-1.13715e+06	2.10463e+06	
40921	0.62009	-1.34895	1.46032	-0.00177296	-0.00168137	0.000210988	2.87783e+06	-7.8761e+06	268093	
40951	0.62009	-1.34895	1.46032	0.00280279	-0.0142044	0.000637256	2.87783e+06	-7.8761e+06	268093	
40981	0.62009	-1.34895	1.46032	0.00996859	-0.0338159	0.00130481	2.87783e+06	-7.8761e+06	268093	
41012	0.616677	-1.34758	1.46099	0.0116953	-0.0385415	0.00146566	-5.73473e+06	2.30015e+06	1.11627e+06	
41041	0.616677	-1.34758	1.46099	0.00326523	-0.0351603	0.00310658	-5.73473e+06	2.30015e+06	1.11627e+06	
41072	0.615012	-1.33959	1.46016	-0.000863776	-0.0335042	0.0039103	-2.80569e+06	1.34622e+07	-1.38845e+06	
41132	0.617626	-1.34534	1.4612	0.00147154	-0.00150797	2.00506e-10	-1.47508e+06	2.87801e+06	-204470	
41161	0.617277	-1.34763	1.46143	0.000807753	-0.000212863	-9.20111e-05	-590640	-3.87417e+06	389293	
41192	0.618174	-1.34547	1.46356	0.000719157	-0.000793988	-3.36172e-05	1.52102e+06	3.6694e+06	3.6051e+06	
41221	0.617553	-1.34183	1.46278	0.00126672	0.000526995	0.00126422	-1.05347e+06	6.17455e+06	-1.31317e+06	
41252	0.617553	-1.34183	1.46278	-9.2258e-05	0.00849216	-0.000429765	-1.05347e+06	6.17455e+06	-1.31317e+06	
41281	0.616902	-1.34917	1.46558	-0.000882363	0.0131231	-0.00141464	-1.10819e+06	-1.24987e+07	4.76485e+06	
41341	0.617757	-1.34754	1.46366	-0.000751852	-0.00185965	3.01556e-10	2.22237e+06	3.59187e+06	-3.10933e+06	
41371	0.617173	-1.34618	1.46558	0.00118161	0.00126528	-0.00270512	-997489	2.31827e+06	3.2891e+06	
41402	0.616694	-1.34435	1.46372	0.000343719	0.00321263	5.77222e-05	-819522	3.13014e+06	-3.19646e+06	
41431	0.618443	-1.3444	1.46362	0.000196205	0.00377605	-0.000517641	3.00162e+06	-79589.3	-167809	
41492	0.619439	-1.34432	1.46262	-0.000200779	-0.00119329	4.6169e-10	1.70914e+06	131811	-1.71162e+06	
41521	0.617454	-1.33982	1.46531	-4.69568e-05	-0.00118143	-0.000154045	-3.42079e+06	7.75904e+06	4.62922e+06	
41552	0.618271	-1.34087	1.46694	-0.00117582	0.00137905	0.0013736	1.41051e+06	-1.80128e+06	2.82214e+06	
41581	0.618793	-1.34021	1.46433	-0.000541088	0.000568475	0.00264356	900359	1.13488e+06	-4.52311e+06	
41612	0.617305	-1.34106	1.46364	-0.000189948	0.00101108	0.000879547	-2.57499e+06	-1.48109e+06	-1.1802e+06	
41641	0.618532	-1.33706	1.46123	-0.000498946	0.000833348	0.000737923	-549602	4.28509e+06	-2.27333e+06	
41672	0.618716	-1.33952	1.46123	-0.000779243	0.00301874	-0.000421473	318832	-4.26504e+06	-10180.6	
41701	0.618716	-1.33952	1.46123	-0.000339256	-0.00286701	-0.000435522	318832	-4.26504e+06	-10180.6	
41732	0.621058	-1.33859	1.46201	-0.000157521	-0.00529809	-0.000441325	4.07501e+06	1.60379e+06	1.36639e+06	
41761	0.617714	-1.33892	1.45975	0.00143173	-0.00467261	9.15654e-05	-5.82728e+06	-569093	-3.94129e+06	
41791	0.616352	-1.33964	1.46052	-0.00188982	-0.00499699	-0.00215497	-2.37714e+06	-1.25488e+06	1.341e+06	
41821	0.616352	-1.33964	1.46052	-0.00538422	-0.00684166	-0.000183693	-2.37714e+06	-1.25488e+06	1.341e+06	
41881	0.618597	-1.34503	1.45996	-0.000485637	-0.00158794	2.31877e-10	3.32403e+06	-7.69677e+06	1.83437e+06	
41911	0.618894	-1.34278	1.45825	0.00130934	-0.0057442	0.000990558	521240	3.96234e+06	-3.00093e+06	
41971	0.620328	-1.34151	1.45992	-0.000532193	-0.00223666	1.74632e-10	291978	3.82021e+06	359748	
42002	0.620328	-1.34151	1.45992	-7.67077e-05	0.00372287	0.000561207	291978	3.82021e+06	359748	
42032	0.620328	-1.34151	1.45992	0.000641558	0.0131206	0.00144619	291978	3.82021e+06	359748	
42061	0.623769	-1.34643	1.46021	0.000895578	0.0164442	0.00175917	6.08025e+06	-8.68996e+06	507264	
42121	0.625887	-1.34551	1.45971	-6.9581e-05	-0.000830092	2.89261e-10	3.74953e+06	1.62215e+06	-880176	
42152	0.621793	-1.34395	1.4574	0.00128025	-0.000246118	-0.000316863	2.76081e+06	-4.18566e+06	-743559	
42181	0.621645	-1.34427	1.46142	0.00268826	-0.00238081	-0.000696078	-263258	-566749	7.1515e+06	
42212	0.620831	-1.34677	1.45869	0.00245133	-0.00289088	0.00574027	-1.44791e+06	-4.43794e+06	-4.86084e+06	
42241	0.620994	-1.3445	1.45953	0.00201696	-0.00422226	0.00428202	290172	4.04431e+06	1.49704e+06	
42272	0.619594	-1.34713	1.45977	0.00221718	-0.00143169	0.00531498	-2.49849e+06	-4.69642e+06	437874	
42301	0.618117	-1.34298	1.45757	0.0018424	-0.00213615	0.00538066	-2.64225e+06	7.42577e+06	-3.93114e+06	
42331	0.618918	-1.339	1.45858	0.000574122	0.00142822	0.00349371	1.43388e+06	7.13144e+06	1.80366e+06	
42361	0.618817	-1.33912	1.4586	0.00160651	0.00656285	0.00479235	-180454	-212171	32051	
42391	0.617866	-1.34013	1.45682	0.00159568	0.00655012	0.00479427	-1.24838e+06	5.59962e+06	-2.41291e+06	
42422	0.617866	-1.34013	1.45682	0.000359793	0.0120937	0.00240549	-1.24838e+06	5.59962e+06	-2.41291e+06	
42451	0.618341	-1.33946	1.45573	9.76341e-05	0.0132697	0.00189877	856502	1.21118e+06	-1.95813e+06	
42512	0.61942	-1.33887	1.45806	0.000736456	-0.00184457	3.37241e-10	1.94581e+06	1.06637e+06	4.19108e+06	
42541	0.61942	-1.33887	1.45806	0.00505614	0.000522774	0.0093042	1.94581e+06	1.06637e+06	4.19108e+06	
42572	0.622826	-1.34253	1.46012	0.00587338	0.00097065	0.0110645	6.16878e+06	-6.63113e+06	3.7349e+06	
42601	0.620217	-1.34597	1.46357	0.00827921	-0.00161549	0.0125211	-4.73138e+06	-6.23593e+06	6.25299e+06	
42632	0.618886	-1.33854	1.46001	0.00487261	-0.00610536	0.0170232	-2.41703e+06	1.34864e+07	-6.4577e+06	
42721	0.622725	-1.34052	1.46175	0.000646647	-0.00223584	2.56575e-10	-1.42675e+06	-3.19073e+06	2.52119e+06	
42751	0.623739	-1.34306	1.46067	-0.000594623	-0.00501178	0.00219343	1.84949e+06	-4.62232e+06	-1.96057e+06	
42781	0.620947	-1.34542	1.46183	-9.5261e-05	-0.00625981	0.00166408	810328	1.01444e+06	-476213	
42812	0.619944	-1.34492	1.4631	0.000318007	-0.00574244	0.00142121	-1.83612e+06	916097	2.32768e+06	
42841	0.619645	-1.34396	1.46116	-0.000453162	-0.00535768	0.00239883	-549353	1.76046e+06	-3.56345e+06	
42871	0.619155	-1.34406	1.46161	-0.000634449	-0.00477673	0.0012229	-899464	-194691	829064	
42901	0.616996	-1.34692	1.46059	-0.00125508	-0.00491106	0.00179495	-3.96927e+06	-5.25612e+06	-1.884e+06	
42932	0.617053	-1.34865	1.46328	-0.00316033	-0.007434	0.000890631	104719	-3.1793e+06	4.96852e+06	
42961	0.615062	-1.34561	1.46225	-0.00313834	-0.00810165	0.00193402	-3.67319e+06	5.604e+06	-1.90219e+06	
42992	0.615062	-1.34561	1.46225	-0.00732578	-0.00171309	-0.000234482	-3.67319e+06	5.604e+06	-1.90219e+06	
43021	0.616286	-1.34361	1.46437	-0.00743598	-0.00154497	-0.000291548	2.26449e+06	3.71457e+06	3.91485e+06	
43051	0.616286	-1.34361	1.46437	-0.00533	0.00190957	0.00334927	2.26449e+06	3.71457e+06	3.91485e+06	
43142	0.619814	-1.3459	1.46223	-0.000533675	-0.00256466	8.70683e-11	-67385.8	-1.88715e+06	-1.48561e+06	
43171	0.618258	-1.34411	1.46344	-0.000543782	-0.00284773	-0.000222841	-2.89957e+06	3.34122e+06	2.24761e+06	
43231	0.615168	-1.34381	1.4599	-0.000314393	-0.000335767	3.38428e-10	-5.76265e+06	552818	-6.60117e+06	
43352	0.617302	-1.34398	1.45729	0.000606382	-0.00169109	6.28341e-11	955850	-4.16252e+06	-1.24606e+06	
43381	0.617302	-1.34398	1.45729	0.00161002	-0.00606174	-0.00130836	955850	-4.16252e+06	-1.24606e+06	
43412	0.617476	-1.34275	1.45871	0.00244161	-0.00968313	-0.00239244	326464	2.31689e+06	2.66167e+06	
43471	0.61775	-1.34609	1.45934	-0.00102582	-0.00183322	3.47859e-10	516745	-6.30016e+06	1.18733e+06	
43531	0.620305	-1.34582	1.46369	-0.00205541	-0.0022514	2.17458e-10	4.83317e+06	522072	8.22929e+06	
43562	0.619769	-1.34647	1.4617	0.00156947	-0.00185984	0.00617196	-1.0157e+06	-1.23971e+06	-3.77032e+06	
43622	0.618701	-1.34006	1.46116	2.1553e-05	-0.00227957	1.83625e-10	-1.37002e+06	5.96495e+06	-200141	
43682	0.618209	-1.3463	1.46045	-0.000704804	-0.00199544	6.76513e-11	-1.06205e+06	-2.56722e+06	-2.27015e+06	
43742	0.620024	-1.34473	1.46129	1.95562e-05	-0.000639706	2.21761e-10	3.46674e+06	2.99116e+06	1.59991e+06	
43771	0.61993	-1.34428	1.4627	0.00293162	0.00187287	0.00134392	-181412	874090	2.69551e+06	
43831	0.618858	-1.34348	1.46156	-0.000214493	-0.00147267	2.07533e-10	-3.99279e+06	2.78483e+06	262440	
43862	0.619358	-1.3438	1.46036	-0.0030893	0.000532405	0.000188957	961295	-612823	-2.29755e+06	
43891	0.619413	-1.34148	1.46132	-0.00262788	0.000238249	-0.000913867	105417	4.46302e+06	1.84373e+06	
43952	0.61792	-1.34051	1.46121	0.00110616	-0.00239228	3.91399e-10	-2.87864e+06	1.87984e+06	-210168	
43981	0.618877	-1.34166	1.46396	0.000242572	-0.00182832	-6.305e-05	1.85189e+06	-2.21932e+06	5.31412e+06	
44012	0.618877	-1.34166	1.46396	0.0025204	-0.00455808	0.00647332	1.85189e+06	-2.21932e+06	5.31412e+06	
44042	0.624269	-1.34198	1.4653	0.00379821	-0.00608941	0.0101401	1.04465e+07	-617172	2.60205e+06	
44071	0.622522	-1.34355	1.46329	0.00912595	-0.00640417	0.0114671	-3.39027e+06	-3.06185e+06	-3.90413e+06	
44101	0.623219	-1.34223	1.46537	0.00810887	-0.00732273	0.0102959	1.0701e+06	2.19958e+06	5.64842e+06	
44131	0.623219	-1.34223	1.46537	0.00939299	-0.00468323	0.017074	1.0701e+06	2.19958e+06	5.64842e+06	
44162	0.618873	-1.33795	1.46305	0.0101314	-0.00316551	0.0209714	-8.46768e+06	8.33958e+06	-4.5198e+06	
44222	0.617798	-1.33794	1.46346	-0.000515531	-0.00196546	2.96155e-10	-632712	3.44514e+06	-1.21378e+06	
44251	0.618976	-1.33835	1.46289	-0.000857195	-0.000105088	-0.000655442	2.3037e+06	-794656	-1.10133e+06	
44281	0.618623	-1.34143	1.46204	-0.000580751	-0.000200447	-0.000787601	-690705	-6.04764e+06	-1.67646e+06	
44342	0.618996	-1.34471	1.46217	-8.21267e-06	-0.000969981	7.89088e-11	-1.01283e+06	4.67168e+06	-2.2835e+06	
44372	0.620268	-1.34369	1.46152	-0.000463984	0.00113228	-0.00102758	2.50198e+06	2.01218e+06	-1.28269e+06	
44401	0.617383	-1.34326	1.46202	0.00043673	0.00185666	-0.00148934	-5.68502e+06	846147	979556	
44461	0.616618	-1.34388	1.46084	-0.0116463	-0.00560235	0.001273	-1.50829e+06	-1.23212e+06	-2.32043e+06	
44521	0.616181	-1.34096	1.46123	0.000240056	-0.00137198	1.73264e-10	-1.77088e+06	4.35755e+06	624431	
44552	0.617823	-1.33734	1.4603	-0.000716221	0.000981095	0.000337193	3.25759e+06	7.16941e+06	-1.83451e+06	
44582	0.618009	-1.33403	1.45847	0.000358783	0.003347	-0.000268195	368456	6.58946e+06	-3.63849e+06	
44641	0.617517	-1.33479	1.45826	-0.000382532	-0.00205311	2.3322e-10	22146.9	1.3429e+06	-552839	
44672	0.620543	-1.33553	1.45796	-0.000363264	-0.000884791	-0.000480969	6.03045e+06	-1.47822e+06	-596558	
44732	0.619701	-1.33894	1.45829	-1.03457e-05	-0.00174694	1.87989e-10	-1.7194e+06	-7.39245e+06	-3.02953e+06	
44761	0.619767	-1.34107	1.45958	-0.00088724	-0.0055171	-0.00154506	132755	-4.27276e+06	2.58461e+06	
44821	0.620682	-1.34076	1.45832	3.99639e-05	-0.00146644	2.17069e-10	1.83615e+06	612984	-2.53227e+06	
44851	0.61858	-1.33785	1.45751	0.00163741	-0.000933142	-0.00220308	-4.22387e+06	5.84737e+06	-1.62911e+06	
44882	0.617762	-1.33745	1.45621	-0.00140377	0.00327696	-0.00337604	-1.64496e+06	822294	-2.60537e+06	
44942	0.618759	-1.33907	1.46054	-0.000921374	-0.00212968	3.98468e-10	2.00953e+06	-3.26715e+06	8.72693e+06	
45032	0.618356	-1.34425	1.45687	-0.000612018	-0.00140135	1.43698e-10	-1.1435e+06	-3.93647e+06	143055	
45061	0.618356	-1.34425	1.45687	-0.00215574	-0.00671558	0.000193124	-1.1435e+06	-3.93647e+06	143055	
45092	0.61897	-1.34309	1.4575	-0.00249879	-0.00789652	0.000236041	-4.60397e+06	5.52e+06	3.23064e+06	
45121	0.620738	-1.34032	1.45677	-0.00429434	-0.00574372	0.00149599	3.5966e+06	5.64139e+06	-1.47809e+06	
45152	0.619029	-1.34324	1.45705	-0.00148899	-0.00134344	0.000343079	-3.48018e+06	-5.95199e+06	562124	
45211	0.622486	-1.3475	1.45727	-0.000285807	-0.0013064	1.27937e-10	5.31575e+06	-2.35387e+06	1.77601e+06	
45242	0.621473	-1.34922	1.45786	0.00290364	-0.00271872	0.0010656	-2.07095e+06	-3.50808e+06	1.20193e+06	
45271	0.622363	-1.3475	1.45735	0.00153682	-0.00503406	0.00185888	1.82248e+06	3.50652e+06	-1.05449e+06	
45302	0.622098	-1.34894	1.45687	0.00224758	-0.00366651	0.00144763	-135531	-5.17424e+06	-1.40746e+06	
45362	0.622089	-1.34835	1.45638	-0.000848326	-0.00225705	1.35013e-10	210068	-4.8146e+06	382586	
45392	0.622089	-1.34835	1.45638	-0.000615151	-0.00760126	0.00042467	210068	-4.8146e+06	382586	
45421	0.622089	-1.34835	1.45638	-0.000199217	-0.0171342	0.00118219	210068	-4.8146e+06	382586	
45482	0.61765	-1.33801	1.45612	-0.000714288	-0.00163248	2.33386e-10	-9.17015e+06	2.13655e+07	-555026	
45511	0.61765	-1.33801	1.45612	-0.0174957	0.0374665	-0.0010157	-9.17015e+06	2.13655e+07	-555026	
45542	0.620631	-1.34194	1.46281	-0.0257488	0.0566954	-0.00151522	6.17549e+06	-8.14114e+06	1.38736e+07	
45602	0.61973	-1.34311	1.46231	-0.000559961	-0.00164283	4.83497e-11	-2.64564e+06	-6.14787e+06	959588	
45631	0.619146	-1.34583	1.46151	-0.00151239	-0.00385606	0.000345452	-1.21562e+06	-5.65519e+06	-1.67535e+06	
45662	0.618926	-1.34517	1.46248	-0.00238764	-0.0079278	-0.000860803	-458953	1.38559e+06	2.0135e+06	
45691	0.617457	-1.3464	1.46288	-0.00277316	-0.0067639	0.000830534	-3.06346e+06	-2.57381e+06	854052	
45722	0.618165	-1.34292	1.46339	-0.00507075	-0.00869426	0.00147107	1.47854e+06	7.26306e+06	1.05992e+06	
45751	0.620119	-1.34433	1.46305	-0.00440541	-0.00542588	0.00194804	4.08823e+06	-2.94498e+06	-725286	
45782	0.618291	-1.3481	1.46232	-0.000848649	-0.00798801	0.00131704	-3.82691e+06	-7.89343e+06	-1.52437e+06	
45811	0.618531	-1.34824	1.46507	-0.00302999	-0.0124873	0.000448145	504043	-287466	5.7796e+06	
45842	0.61971	-1.34688	1.46049	-0.00278805	-0.0126253	0.00322235	2.47438e+06	2.86133e+06	-9.6325e+06	
45931	0.622861	-1.34858	1.46198	-7.11974e-05	-0.00168654	5.12233e-10	3.11617e+06	2.65211e+06	462395	
45962	0.615831	-1.34656	1.45894	0.00189199	-1.57103e-05	0.000291309	-1.48371e+07	4.24949e+06	-6.42033e+06	
45991	0.615831	-1.34656	1.45894	-0.0203637	0.00635852	-0.00933918	-1.48371e+07	4.24949e+06	-6.42033e+06	
46111	0.618381	-1.34458	1.45961	7.06232e-06	-0.00243468	2.41712e-10	4.39778e+06	-2.61058e+06	-3.81266e+06	
46141	0.618864	-1.34178	1.46037	0.00304153	-0.00423598	-0.00263073	1.02705e+06	5.94993e+06	1.62822e+06	
46232	0.618534	-1.34303	1.46041	5.64801e-06	-0.00206051	2.56101e-10	1.35858e+06	-7.71617e+06	-2.77142e+06	
46261	0.617356	-1.3429	1.45786	0.000209435	-0.00321793	-0.000415713	-2.52233e+06	291728	-5.43801e+06	
46291	0.618234	-1.3451	1.4592	-0.00107695	-0.00306915	-0.0031891	1.87996e+06	-4.71973e+06	2.85055e+06	
46322	0.617202	-1.34321	1.46028	-0.000456566	-0.00462667	-0.00224842	-2.21294e+06	4.05895e+06	2.318e+06	
46411	0.617632	-1.34104	1.46096	6.77315e-05	-0.00042345	6.18472e-10	3.21049e+06	-1.815e+06	3.69387e+06	
46471	0.618922	-1.34377	1.46347	-0.00037696	-0.00179018	1.85168e-10	2.27687e+06	450973	2.73337e+06	
46532	0.622353	-1.34111	1.45799	-0.000797548	-0.0021127	2.90118e-10	-1.33969e+06	-1.26358e+06	-6.96446e+06	
46561	0.621913	-1.34079	1.46019	-0.00168174	-0.00294666	-0.00459655	-953296	697524	4.76467e+06	
46711	0.620337	-1.34544	1.45999	0.000185079	-0.00205886	2.19864e-10	6.18188e+06	-223231	4.91149e+06	
46771	0.620422	-1.34395	1.4583	-0.000527793	-0.00190875	1.9944e-10	-595042	-6.63466e+06	-2.25941e+06	
46802	0.621177	-1.34274	1.46	-0.000920521	-0.00628763	-0.00149121	1.65288e+06	2.64746e+06	3.7146e+06	
46831	0.619943	-1.34375	1.45792	7.12068e-05	-0.00469915	0.000737549	-2.70536e+06	-2.21322e+06	-4.56012e+06	
46861	0.621008	-1.34244	1.46037	-0.00130853	-0.0058279	-0.00158811	2.33702e+06	2.86807e+06	5.39096e+06	
46921	0.621883	-1.34062	1.45956	-0.000924678	-0.00125798	2.34787e-10	1.92346e+06	4.00153e+06	-1.78073e+06	
46981	0.617278	-1.34656	1.4629	0.000176986	-0.00283625	1.37238e-10	-8.87218e+06	-1.32817e+07	5.6166e+06	
47012	0.618757	-1.34622	1.4641	-0.00807414	-0.0151882	0.00522344	3.26413e+06	758732	2.64888e+06	
47041	0.617372	-1.34596	1.4626	-0.00543019	-0.0145737	0.00736904	-3.06122e+06	578238	-3.31689e+06	
47072	0.61623	-1.34903	1.46611	-0.00772611	-0.01414	0.00488137	-2.52739e+06	-6.80285e+06	7.75811e+06	
47131	0.617713	-1.34626	1.46432	-0.000346315	-0.00267384	2.06643e-10	3.12602e+06	2.40458e+06	1.07844e+06	
47162	0.617474	-1.34579	1.46316	0.000966611	-0.00166392	0.000452943	-532784	1.04259e+06	-2.56838e+06	
47191	0.618658	-1.34508	1.45998	0.000567024	-0.000881978	-0.00147334	2.63539e+06	1.58724e+06	-7.08324e+06	
47221	0.621671	-1.34196	1.46219	0.00230638	0.000165603	-0.00614828	6.71265e+06	6.93174e+06	4.9157e+06	
47252	0.621671	-1.34196	1.46219	0.0129795	0.0111871	0.00166769	6.71265e+06	6.93174e+06	4.9157e+06	
47281	0.621953	-1.34346	1.46254	0.0149933	0.0132666	0.00314241	4.38526e+06	-2.2484e+06	287398	
47312	0.621953	-1.34346	1.46254	0.0203872	0.0105011	0.0034959	4.38526e+06	-2.2484e+06	287398	
47402	0.621084	-1.3384	1.46109	-0.00105999	-0.0016848	3.84197e-10	1.20949e+06	1.00666e+07	-4.85554e+06	
47431	0.61755	-1.34032	1.46012	-0.000951137	-0.000778804	-0.000436999	-7.94817e+06	-4.31074e+06	-2.19549e+06	
47462	0.62133	-1.34175	1.45806	-0.00452781	-0.00271864	-0.00142497	8.50993e+06	-3.22207e+06	-4.63183e+06	
47491	0.62008	-1.3435	1.45969	-0.000187749	-0.00436189	-0.0037872	-2.81801e+06	-3.93604e+06	3.6722e+06	
47522	0.618492	-1.3419	1.46055	-0.00120223	-0.00577887	-0.00246521	-3.5839e+06	3.59599e+06	1.93695e+06	
47551	0.618236	-1.34278	1.45874	-0.00367513	-0.00329763	-0.00112872	-579274	-1.97902e+06	-4.06912e+06	
47582	0.61979	-1.34726	1.45944	-0.00372726	-0.00347574	-0.00149494	-2.492e+06	-5.91945e+06	-846690	
47611	0.61979	-1.34726	1.45944	-0.00611958	-0.00915842	-0.00230776	-2.492e+06	-5.91945e+06	-846690	
47641	0.61825	-1.34605	1.45978	-0.0066429	-0.0104015	-0.00248556	-3.49412e+06	2.75832e+06	772363	
47671	0.620169	-1.34436	1.45953	-0.00873938	-0.00874651	-0.00202215	4.35898e+06	3.83454e+06	-573924	
47731	0.61677	-1.3442	1.45747	0.000667034	-0.00130474	1.98057e-10	-3.57365e+06	848600	-922336	
47762	0.616574	-1.34374	1.45505	-0.000619481	-0.000999246	-0.000332041	-445292	1.03944e+06	-5.51169e+06	
47822	0.619375	-1.34391	1.45608	4.98047e-05	-0.00229683	1.54278e-10	1.6616e+06	5.69239e+06	860846	
47851	0.619375	-1.34391	1.45608	0.00304069	0.00794948	0.00154952	1.6616e+06	5.69239e+06	860846	
47911	0.618559	-1.34235	1.46177	-0.000217068	-0.00253552	1.31673e-10	-1.24844e+06	4.10841e+06	5.57034e+06	
47941	0.620585	-1.34108	1.45966	-0.000666508	-0.00105649	0.00200532	4.65303e+06	2.91796e+06	-4.85799e+06	
48002	0.621372	-1.34189	1.46073	-0.000758455	-0.00124156	3.00656e-10	1.81083e+06	-1.85884e+06	2.46809e+06	
48091	0.620563	-1.34443	1.45995	-0.000233385	-0.00172446	2.78967e-10	4.10394e+06	-4.52878e+06	-476692	
48121	0.621591	-1.34208	1.45686	0.00321392	-0.00552864	-0.000400421	2.37736e+06	5.42335e+06	-7.14619e+06	
48151	0.623028	-1.34172	1.45859	0.00478298	-0.00194923	-0.00511691	3.32874e+06	845236	3.99621e+06	
48241	0.617456	-1.34358	1.45947	-0.00168994	-0.00142547	3.7301e-10	-3.1088e+06	-4.35052e+06	3.8428e+06	
48272	0.619784	-1.34164	1.45729	-0.00234279	-0.00233908	0.000806988	5.42392e+06	4.51435e+06	-5.06541e+06	
48301	0.619784	-1.34164	1.45729	0.00351505	0.00253642	-0.00466365	5.42392e+06	4.51435e+06	-5.06541e+06	
48332	0.620238	-1.34284	1.45859	0.00823386	0.0064639	-0.00907056	1.05964e+06	-2.78854e+06	3.01822e+06	
48392	0.62334	-1.34271	1.46135	-0.000192715	-0.0012224	9.86571e-11	1.8216e+06	676695	1.06073e+06	
48421	0.620369	-1.347	1.45961	0.000299118	-0.00103969	0.000286397	-6.96323e+06	-1.00435e+07	-4.07434e+06	
48452	0.620755	-1.34369	1.4604	-0.00346102	-0.00646321	-0.00191375	904375	7.75628e+06	1.84283e+06	
48481	0.620018	-1.3434	1.45719	-0.00289127	-0.00157675	-0.000752763	-1.72911e+06	690246	-7.53912e+06	
48511	0.618252	-1.34948	1.46084	-0.00372124	-0.00124543	-0.00437154	-4.15524e+06	-1.42892e+07	8.59783e+06	
48541	0.619797	-1.34799	1.46058	-0.00446919	-0.00381749	-0.00282393	3.64116e+06	3.50075e+06	-627665	
48572	0.618009	-1.34752	1.4588	-0.00250296	-0.00192708	-0.00316287	-4.21563e+06	1.10065e+06	-4.19203e+06	
48631	0.618949	-1.34892	1.45916	-0.000653966	-0.00189738	2.55304e-10	-3.2432e+06	-1.33085e+06	-2.60802e+06	
48662	0.62273	-1.34902	1.45867	-0.0022107	-0.00253618	-0.00125185	8.94756e+06	-239125	-1.17799e+06	
48691	0.622402	-1.35081	1.46011	-0.000331713	-0.0025864	-0.00149923	-778756	-4.25203e+06	3.41147e+06	
48721	0.619991	-1.34774	1.46072	-0.000752241	-0.0048825	0.000342967	-5.71776e+06	7.29483e+06	1.44695e+06	
48752	0.622033	-1.34633	1.46009	-0.00160991	-0.00378827	0.000560009	4.8515e+06	3.33842e+06	-1.49405e+06	
48781	0.622937	-1.34622	1.46019	0.000864359	-0.00208568	-0.000201955	2.14995e+06	270848	230985	
48812	0.622937	-1.34622	1.46019	0.00396029	-0.00169566	0.000130663	2.14995e+06	270848	230985	
48841	0.620266	-1.34506	1.4599	0.00396029	-0.00169566	0.000130663	-6.37104e+06	2.76214e+06	-678482	
48872	0.624338	-1.34103	1.46092	0.00185784	-0.000784152	-9.32357e-05	9.72153e+06	9.6346e+06	2.43422e+06	
48901	0.623581	-1.34364	1.4601	0.00769076	0.00499661	0.0013673	-1.8088e+06	-6.23584e+06	-1.94999e+06	
48932	0.624417	-1.34139	1.46104	0.00611711	-0.000428574	-0.000329199	1.99763e+06	5.37371e+06	2.24241e+06	
49022	0.622399	-1.34097	1.46151	-0.000101187	-0.00108302	7.14122e-11	-1.46394e+06	-7.4018e+06	2.6251e+06	
49051	0.621226	-1.34176	1.46167	-0.000584286	-0.00352561	0.000866284	-2.82098e+06	-1.89461e+06	391062	
49082	0.621226	-1.34176	1.46167	-0.00413871	-0.00591282	0.00135902	-2.82098e+06	-1.89461e+06	391062	
49111	0.621498	-1.34234	1.46158	-0.0058313	-0.00704959	0.00159366	654248	-1.40299e+06	-224666	
49142	0.623932	-1.34546	1.46142	-0.00545838	-0.00784929	0.0014656	5.87535e+06	-7.52636e+06	-366992	
49171	0.622108	-1.34392	1.46008	-0.00351951	-0.010333	0.00134449	-4.41031e+06	3.71281e+06	-3.25726e+06	
49291	0.619379	-1.3439	1.46032	-0.000373472	-0.00184444	2.00137e-10	-6.67341e+06	424878	-4.54936e+06	
49321	0.619379	-1.3439	1.46032	-0.0123856	-0.00107966	-0.00818885	-6.67341e+06	424878	-4.54936e+06	
49352	0.620056	-1.34436	1.46426	-0.0145878	-0.000939454	-0.00969014	1.64835e+06	-1.1212e+06	9.58539e+06	
49412	0.618657	-1.34481	1.46342	0.000362768	-0.00122517	3.05641e-10	-4.17043e+06	-4.00007e+06	7.93471e+06	
49472	0.619748	-1.34415	1.46227	-0.000495888	-0.00104988	1.28801e-10	-1.11638e+06	498221	4.79336e+06	
49531	0.620469	-1.34588	1.46296	-0.000146794	-0.00162522	1.40179e-10	1.82008e+06	-1.08974e+06	2.66668e+06	
49562	0.619188	-1.34563	1.46514	0.000453832	-0.00198484	0.000880005	-3.14384e+06	624720	5.3618e+06	
49591	0.619816	-1.34679	1.46278	-1.77435e-05	-0.00189113	0.00168427	1.5426e+06	-2.86674e+06	-5.80675e+06	
49622	0.620811	-1.34627	1.46196	0.000768981	-0.00335316	-0.00127717	2.44876e+06	1.28127e+06	-2.02262e+06	
49652	0.620811	-1.34627	1.46196	0.00422173	-0.00154657	-0.00412907	2.44876e+06	1.28127e+06	-2.02262e+06	
49681	0.62025	-1.34871	1.46163	0.00561752	-0.000816251	-0.00528196	-1.38321e+06	-6.01016e+06	-812655	
49712	0.620832	-1.34777	1.46026	0.00524405	-0.00243899	-0.00550138	1.43773e+06	2.31982e+06	-3.38115e+06	
49741	0.622075	-1.34628	1.46272	0.00537345	-0.00223021	-0.00580568	3.07603e+06	3.67806e+06	6.07787e+06	
49772	0.620776	-1.34546	1.46182	0.00638854	-0.00101645	-0.00379998	-3.21816e+06	2.03444e+06	-2.23438e+06	
49801	0.620776	-1.34546	1.46182	0.00252674	0.00142488	-0.00648124	-3.21816e+06	2.03444e+06	-2.23438e+06	
49832	0.620776	-1.34546	1.46182	-0.00432795	0.00575824	-0.0112405	-3.21816e+06	2.03444e+06	-2.23438e+06	
49861	0.620169	-1.34231	1.46062	-0.00693466	0.00740614	-0.0130503	-1.50707e+06	7.82329e+06	-2.95978e+06	
49891	0.618772	-1.34689	1.45695	-0.00801975	0.0130389	-0.0151814	-3.47298e+06	-1.1387e+07	-9.13197e+06	
49951	0.620362	-1.34082	1.45571	1.99297e-05	-0.0018043	5.37703e-10	3.90898e+06	4.50887e+06	-3.39099e+06	
50041	0.621319	-1.34171	1.45915	-0.00132899	-0.00133545	3.4982e-10	4.28585e+06	6.72222e+06	2.28438e+06	
50102	0.616298	-1.34276	1.46026	8.87616e-06	-0.00205115	2.28176e-10	-4.16913e+06	-4.09786e+06	5.88941e+06	
50131	0.615972	-1.33929	1.45906	-0.00211738	-0.00414106	0.0030036	-818043	8.70458e+06	-3.0191e+06	
50162	0.615929	-1.34251	1.4597	-0.00287816	0.0039542	0.000195837	-108834	-8.08229e+06	1.61449e+06	
50191	0.616232	-1.3426	1.45996	-0.00294346	-0.000895172	0.00116453	764580	-233723	649594	
50221	0.618439	-1.34264	1.459	-0.00273703	-0.000958277	0.00133992	5.5624e+06	-88992.7	-2.41501e+06	
50251	0.618439	-1.34264	1.459	0.00377098	-0.0010624	-0.00148564	5.5624e+06	-88992.7	-2.41501e+06	
50312	0.617338	-1.34182	1.4579	-0.000656186	-0.00142995	3.79147e-10	-2.77889e+06	2.05474e+06	-2.78489e+06	
50372	0.617287	-1.34291	1.45747	-0.000646803	-0.00148169	1.1623e-10	-6.60941e+06	8.47988e+06	-7.53200e+06	
50401	0.617749	-1.34413	1.45837	-0.00143993	-0.000464104	-0.000903841	1.1716e+06	-3.10013e+06	2.28145e+06	
50432	0.617252	-1.3434	1.45832	-0.000877566	-0.00195217	0.000191257	-1.26137e+06	1.85258e+06	-111496	
50492	0.618287	-1.34399	1.45894	-0.000353286	-0.000988836	2.2142e-10	2.32945e+06	2.53988e+06	-324361	
50521	0.618324	-1.34407	1.45891	0.0013938	0.000916076	-0.000243271	94276.8	-205414	-75991.3	
50552	0.616735	-1.34524	1.45979	0.00148148	0.000725041	-0.000313943	-4.05506e+06	-2.99655e+06	2.24896e+06	
50581	0.618788	-1.34352	1.46049	-0.00131651	-0.00134258	0.00123784	5.24736e+06	4.40642e+06	1.78019e+06	
50612	0.617839	-1.34229	1.46084	0.0018319	0.00130128	0.00230595	-2.42811e+06	3.14157e+06	899157	
50642	0.619834	-1.33816	1.45842	0.000666411	0.00280923	0.00273754	5.11361e+06	1.05834e+07	-6.21806e+06	
50671	0.618958	-1.33853	1.45934	0.00220049	0.00598424	0.000872125	-2.24829e+06	-941768	2.37784e+06	
50702	0.618958	-1.33853	1.45934	-0.000564905	0.00482586	0.00379687	-2.24829e+06	-941768	2.37784e+06	
50762	0.620431	-1.34001	1.4582	0.000531091	-0.00217948	1.98328e-10	2.53862e+06	3.14541e+06	-441916	
50791	0.619691	-1.33673	1.45701	0.000835726	-0.00180203	-5.30297e-05	-1.90781e+06	8.45471e+06	-3.04572e+06	
50822	0.617239	-1.34174	1.45804	-8.00233e-05	0.00225623	-0.00151498	-6.33063e+06	-1.29447e+07	2.64365e+06	
50882	0.619063	-1.34132	1.45963	-0.000144885	-0.000921736	1.16375e-10	5.42491e+06	-514362	2.14061e+06	
50911	0.619063	-1.34132	1.45963	0.00603951	-0.00150811	0.00244029	5.42491e+06	-514362	2.14061e+06	
50942	0.618155	-1.33485	1.4611	0.0110847	-0.00198647	0.00443105	-2.35285e+06	1.675e+07	3.80507e+06	
50971	0.618279	-1.34055	1.46069	0.00981414	0.00705852	0.00648579	322065	-1.47957e+07	-1.06001e+06	
51002	0.618671	-1.33819	1.45979	0.0100847	-0.00536984	0.00559538	1.01829e+06	6.15332e+06	-2.32625e+06	
51031	0.61744	-1.34086	1.46038	0.0105429	-0.00260084	0.00454857	-3.20256e+06	-6.9522e+06	1.51881e+06	
51061	0.61744	-1.34086	1.46038	0.00621944	-0.0119863	0.00659896	-3.20256e+06	-6.9522e+06	1.51881e+06	
51092	0.617755	-1.3419	1.46186	0.00593121	-0.012612	0.00673565	1.17117e+06	-1.0455e+06	2.33724e+06	
51121	0.61689	-1.34182	1.46259	0.00638797	-0.0130198	0.00764718	-2.26065e+06	211640	1.90111e+06	
51152	0.61689	-1.34182	1.46259	0.00340391	-0.0127404	0.0101566	-2.26065e+06	211640	1.90111e+06	
51181	0.618763	-1.34247	1.46261	0.00177624	-0.012588	0.0115254	4.90289e+06	-1.71391e+06	49233.6	
51212	0.616369	-1.34316	1.46331	0.00604175	-0.0140791	0.0115683	-6.27269e+06	-1.8052e+06	1.83277e+06	
51241	0.615738	-1.34035	1.46448	0.00171359	-0.0153247	0.0128329	-1.65522e+06	7.37506e+06	3.08371e+06	
51271	0.615738	-1.34035	1.46448	-0.000918199	-0.00359836	0.017736	-1.65522e+06	7.37506e+06	3.08371e+06	
51302	0.617149	-1.34103	1.46253	-0.00121614	-0.00227085	0.0182911	3.71237e+06	-1.79725e+06	-5.14865e+06	
51331	0.617363	-1.33638	1.46047	0.000565799	-0.00313353	0.0158197	565520	1.22607e+07	-5.40898e+06	
51362	0.618693	-1.33867	1.46364	0.000972973	0.00569417	0.0119252	3.50331e+06	-6.04883e+06	8.33921e+06	
51392	0.620962	-1.33562	1.46301	0.00349535	0.00133901	0.0179295	5.98918e+06	8.05627e+06	-1.64993e+06	
51421	0.618181	-1.33672	1.46284	0.00852627	0.00810628	0.0165435	-7.3451e+06	-2.89598e+06	-454334	
51451	0.615095	-1.33664	1.46378	0.00720415	0.00758501	0.0164617	-8.1677e+06	192257	2.47814e+06	
51481	0.615729	-1.34051	1.46349	0.00401875	0.00765999	0.0174282	1.67956e+06	-1.02308e+07	-746770	
51511	0.620335	-1.33853	1.46033	0.00437145	0.00551152	0.0172714	1.2217e+07	5.23298e+06	-8.40508e+06	
51542	0.620328	-1.33796	1.46103	0.0091361	0.00755238	0.0139934	-17433.8	1.53121e+06	1.87815e+06	
51571	0.61923	-1.34164	1.46212	0.00912878	0.00819549	0.0147822	-2.91882e+06	-9.80128e+06	2.89196e+06	
51602	0.617524	-1.34301	1.46087	0.00772774	0.00349088	0.0161704	-4.54097e+06	-3.63253e+06	-3.32992e+06	
51631	0.613502	-1.3392	1.46158	0.00418579	0.000657505	0.013573	-1.07114e+07	1.01571e+07	1.88171e+06	
51661	0.617893	-1.33882	1.45816	0.000329678	0.00431406	0.0142505	1.17154e+07	997492	-9.12202e+06	
51691	0.619151	-1.33916	1.45952	0.0073589	0.00491255	0.00877724	3.35744e+06	-900124	3.64948e+06	
51721	0.620394	-1.34341	1.46029	0.00876903	0.0045345	0.01031	3.32327e+06	-1.13763e+07	2.04852e+06	
51752	0.620394	-1.34341	1.46029	0.0131558	-0.0104822	0.0130141	3.32327e+06	-1.13763e+07	2.04852e+06	
51841	0.618504	-1.34165	1.462	-0.000985758	-0.00176083	8.2363e-11	-4.12638e+06	-2.91139e+06	-5254.31	
51872	0.621186	-1.33737	1.45912	-0.00110955	-0.00184817	-1.57547e-07	6.14025e+06	-108502	-7.16989e+06	
51901	0.62255	-1.33485	1.46141	0.00110094	-0.00188723	-0.00258132	3.67169e+06	6.77416e+06	6.15831e+06	
51932	0.622392	-1.33614	1.46165	0.0027532	0.00116114	0.000189919	-424862	-3.48199e+06	643632	
51961	0.622392	-1.33614	1.46165	0.00219238	-0.00343508	0.00103951	-424862	-3.48199e+06	643632	
51992	0.622439	-1.33698	1.46043	0.00184825	-0.00625549	0.00156085	127254	-2.26216e+06	-3.30585e+06	
52021	0.623335	-1.33611	1.46321	0.0019475	-0.00801998	-0.00101771	2.42239e+06	2.34308e+06	7.53707e+06	
52081	0.624546	-1.34177	1.46038	-0.000427641	-0.00265153	3.15592e-10	3.78797e+06	2.8079e+06	-2.21094e+06	
52112	0.622485	-1.34424	1.46347	0.00139059	-0.00130374	-0.00106125	-5.59384e+06	-6.70952e+06	8.39569e+06	
52141	0.622269	-1.33978	1.4612	-0.00263698	-0.00613459	0.00498364	-586750	1.21066e+07	-6.17435e+06	
52201	0.619973	-1.33938	1.45986	-0.00023353	-0.00213373	1.44812e-10	456774	3.92615e+06	-2.77159e+06	
52231	0.619973	-1.33938	1.45986	0.000300895	0.00245987	-0.00324276	456774	3.92615e+06	-2.77159e+06	
52262	0.619973	-1.33938	1.45986	0.00126012	0.0107048	-0.00906311	456774	3.92615e+06	-2.77159e+06	
52292	0.619973	-1.33938	1.45986	0.00263044	0.0224832	-0.0173779	456774	3.92615e+06	-2.77159e+06	
52321	0.617377	-1.34089	1.45982	0.00276747	0.0236611	-0.0182094	4.32444e+06	-860122	-3.65864e+06	
52352	0.615578	-1.34316	1.46151	0.00328641	0.0235579	-0.0186484	3.14178e+06	-8.22215e+06	4.14795e+06	
52412	0.617653	-1.34599	1.45954	0.000927289	-0.00234463	3.84346e-10	5.69088e+06	-7.73878e+06	-5.38606e+06	
52471	0.617566	-1.34614	1.46128	0.0289147	0.000792057	-0.0208441	-238348	-427567	4.77898e+06	
52502	0.615667	-1.34571	1.46345	0.0288503	0.000676614	-0.0195537	-1.22676e+06	5.10002e+06	1.49582e+06	
52531	0.617193	-1.34556	1.4627	0.0281143	0.00373662	-0.0186562	4.20747e+06	412940	-2.07882e+06	
52562	0.615046	-1.34108	1.45924	0.0297552	0.00389767	-0.019467	-5.92917e+06	1.23652e+07	-9.5682e+06	
52591	0.616004	-1.34397	1.46267	0.0286879	0.00612341	-0.0211893	2.64764e+06	-7.99237e+06	9.50457e+06	
52621	0.619855	-1.34299	1.46252	0.0297999	0.00276662	-0.0171973	1.06574e+07	2.72744e+06	-410327	
52652	0.618824	-1.34392	1.46019	0.037793	0.0048122	-0.0175051	-2.85425e+06	-2.59038e+06	-6.45649e+06	
52681	0.615706	-1.34288	1.46096	0.0359092	0.00310254	-0.0217664	-8.64528e+06	2.88055e+06	2.12336e+06	
52772	0.618199	-1.34463	1.46224	-0.000173245	-0.00138244	9.12982e-10	6.92016e+06	-4.86194e+06	3.56487e+06	
52832	0.618546	-1.34655	1.4548	-0.000552324	-0.000631802	3.88629e-10	-403928	2.92474e+06	-1.17997e+07	
52861	0.618568	-1.34874	1.45797	-0.000588677	-0.000368575	-0.00106198	731056	-7.68474e+06	-2.24092e+06	
52921	0.619148	-1.34696	1.46177	-6.22746e-05	-0.001791	1.7261e-10	9.02346e+06	-1.26447e+06	1.04239e+06	
52951	0.619498	-1.34715	1.45935	0.00670532	-0.00273936	0.00078179	980381	-533757	-6.76693e+06	
53042	0.615925	-1.34654	1.46111	0.00124985	-0.00105876	1.96049e-10	-8.06216e+06	-3.6627e+06	5.02657e+06	
53071	0.61689	-1.34532	1.45927	-0.00141066	-0.00226745	0.00165877	2.71732e+06	3.42644e+06	-5.17533e+06	
53102	0.617442	-1.34039	1.46259	0.000219729	-0.000211584	-0.00144643	1.55549e+06	1.3905e+07	9.35969e+06	
53131	0.622947	-1.34201	1.45943	0.00101303	0.00687999	0.00332701	1.55312e+07	-4.57396e+06	-8.9414e+06	
53162	0.620793	-1.34499	1.4603	0.008468	0.00468449	-0.000964862	-6.0857e+06	-8.43186e+06	2.45822e+06	
53191	0.618598	-1.342	1.46155	0.00773772	0.00367266	-0.000669876	497672	8.55079e+06	5.79581e+06	
53222	0.618598	-1.342	1.46155	0.00826027	0.012651	0.00541572	497672	8.55079e+06	5.79581e+06	
53251	0.618598	-1.342	1.46155	0.0092158	0.0290685	0.0165437	497672	8.55079e+06	5.79581e+06	
53282	0.618598	-1.342	1.46155	0.0106342	0.0534382	0.0330617	497672	8.55079e+06	5.79581e+06	
53342	0.616516	-1.34363	1.464	-0.00025994	-0.001356	1.24503e-10	6.23217e+06	-7.86588e+06	3.51372e+06	
53402	0.618864	-1.34268	1.46179	-0.0017014	-0.00109821	2.40599e-10	1.56621e+06	-1.33943e+06	-6.03806e+06	
53431	0.617289	-1.3459	1.45774	-0.000855645	-0.0018215	-0.00326055	-4.49328e+06	-9.19248e+06	-1.155e+07	
53462	0.618294	-1.34652	1.45857	-0.00301242	-0.00623389	-0.00880457	2.871e+06	-1.78958e+06	2.37059e+06	
53491	0.61741	-1.34838	1.45798	-0.000686912	-0.00768345	-0.00688439	-2.52579e+06	-5.29357e+06	-1.69362e+06	
53522	0.616047	-1.34416	1.4614	-0.00280858	-0.01213	-0.00830703	-3.90088e+06	1.20685e+07	9.77472e+06	
53551	0.618479	-1.34625	1.46014	-0.00573424	-0.00307864	-0.000975999	6.96832e+06	-5.99133e+06	-3.59282e+06	
53611	0.620254	-1.34547	1.4571	-0.000316877	-0.00262283	9.66447e-11	1.33528e+06	-992428	-1.03549e+07	
53701	0.619266	-1.34647	1.46093	-0.00117286	-0.00235985	2.62913e-10	-1.76264e+06	-498398	1.65131e+06	
53732	0.618563	-1.34517	1.45668	-0.00223044	-0.00265889	0.000990788	-2.02763e+06	3.75433e+06	-1.22813e+07	
53761	0.618563	-1.34517	1.45668	-0.00521105	0.00285997	-0.0170627	-2.02763e+06	3.75433e+06	-1.22813e+07	
53792	0.618563	-1.34517	1.45668	-0.0100774	0.0118704	-0.0465379	-2.02763e+06	3.75433e+06	-1.22813e+07	
53821	0.618563	-1.34517	1.45668	-0.0167077	0.024147	-0.0866977	-2.02763e+06	3.75433e+06	-1.22813e+07	
53852	0.61894	-1.34111	1.45665	-0.0182284	0.0269628	-0.0959087	1.09176e+06	1.17581e+07	-78522.4	
53881	0.618069	-1.34298	1.45726	-0.0177371	0.0322539	-0.095944	-2.52487e+06	-5.40428e+06	1.76621e+06	
53912	0.621857	-1.34674	1.4573	-0.0191763	0.0291735	-0.0949373	1.10001e+07	-1.09219e+07	120913	
53941	0.619142	-1.3474	1.45663	-0.0145563	0.0245863	-0.0948865	-7.89417e+06	-1.91944e+06	-1.93217e+06	
53972	0.617325	-1.34869	1.4559	-0.0207137	0.0230891	-0.0963936	-5.28835e+06	-3.7741e+06	-2.1444e+06	
54031	0.613694	-1.34717	1.4588	-0.000350849	-0.00106031	1.01121e-10	-1.81314e+07	6.58549e+06	6.22924e+06	
54062	0.615955	-1.34558	1.45885	-0.00796602	0.00170559	0.00261628	6.60676e+06	4.65271e+06	152080	
54121	0.615552	-1.34769	1.45922	-0.000402898	-0.00109433	1.56151e-10	1.01344e+07	267723	159489	
54182	0.617164	-1.34952	1.45951	0.000162656	-0.00112182	2.50145e-10	3.09562e+06	-8.62961e+06	2.04354e+06	
54302	0.619502	-1.35047	1.4605	-0.00125533	-0.00204855	5.90437e-10	1.75679e+07	-4.22752e+06	568199	
54331	0.622498	-1.35122	1.45709	0.0129746	-0.00547284	0.000460242	8.83627e+06	-2.21003e+06	-1.00367e+07	
54362	0.620366	-1.35004	1.4575	0.0156255	-0.00613585	-0.00255077	-601287	-2.84645e+06	-3.03354e+06	
54391	0.618718	-1.3508	1.45712	0.0153008	-0.00767293	-0.00418888	-4.86991e+06	-2.24291e+06	-1.1399e+06	
54422	0.618694	-1.35032	1.45786	0.0109179	-0.00969155	-0.00521479	-72464.6	1.4008e+06	2.19984e+06	
54451	0.618608	-1.34999	1.45691	0.0108549	-0.00847286	-0.00330094	-255699	995212	-2.80938e+06	
54482	0.620139	-1.3516	1.46034	0.0106477	-0.00766673	-0.00557653	4.54216e+06	-4.79624e+06	1.01575e+07	
54511	0.620413	-1.34957	1.45962	0.012828	-0.00996893	-0.000700925	813132	6.04124e+06	-2.11525e+06	
54542	0.622561	-1.35088	1.45952	0.0130231	-0.00851903	-0.00120858	715971	-2.17783e+06	932009	
54571	0.620753	-1.35109	1.45974	0.0133024	-0.00936838	-0.000845101	-5.38005e+06	-643694	652287	
54602	0.620592	-1.3532	1.4596	0.00926732	-0.00985115	-0.000355886	-479500	-6.26332e+06	-399191	
54631	0.619276	-1.35146	1.46046	0.00886454	-0.0151123	-0.000691206	-3.92338e+06	5.17665e+06	2.56708e+06	
54661	0.621325	-1.35133	1.45951	0.00674592	-0.012317	0.000695019	6.11608e+06	392648	-2.84531e+06	
54721	0.620109	-1.34895	1.45982	-0.000302972	-0.00150711	3.4052e-10	-3.6362e+06	7.1081e+06	925412	
54781	0.621926	-1.34611	1.45863	0.000192947	-0.00163161	9.08522e-11	1.63374e+06	5.2289e+06	-6.78452e+06	
54841	0.621137	-1.35081	1.45877	-0.000112652	-0.00178188	2.03707e-10	-2.36995e+06	-1.41383e+07	411544	
54872	0.62277	-1.34941	1.45829	-0.00167682	-0.0111131	0.000271619	4.91454e+06	4.23116e+06	-1.44242e+06	
54901	0.622429	-1.35046	1.45932	0.000977035	-0.00882831	-0.000507288	-1.02855e+06	-3.18062e+06	3.10965e+06	
54932	0.622936	-1.34706	1.46149	0.000267332	-0.0110229	0.00163837	1.53018e+06	1.02554e+07	6.5512e+06	
54961	0.623493	-1.34613	1.45971	0.00155269	-0.00240839	0.00714137	1.67921e+06	2.82416e+06	-5.38049e+06	
54992	0.620696	-1.34299	1.4592	0.00261059	-0.000629164	0.00375166	-8.451e+06	9.48694e+06	-1.52703e+06	
55021	0.621512	-1.3467	1.46038	-0.00398119	0.00677065	0.00256058	2.46873e+06	-1.12177e+07	3.5505e+06	
55082	0.623008	-1.34462	1.45976	-0.000525245	-0.000858054	1.73283e-10	-1.4452e+06	-3.27988e+06	-1.23056e+06	
55111	0.623008	-1.34462	1.45976	-0.00316996	-0.00686024	-0.00225192	-1.4452e+06	-3.27988e+06	-1.23056e+06	
55172	0.623226	-1.34447	1.45918	-6.02465e-05	-0.00259864	1.48334e-10	1.02077e+07	1.92456e+06	8.553e+06	
55231	0.622247	-1.34558	1.45832	0.0177042	0.0173751	0.0266854	-2.98115e+06	-3.39605e+06	-2.59573e+06	
55292	0.619948	-1.34426	1.4613	0.000567341	-0.00174096	1.06277e-10	-1.4604e+07	494210	-135794	
55351	0.618527	-1.34472	1.46161	0.000141391	-0.0015714	1.24293e-10	-2.44769e+06	-5.45117e+06	-797732	
55382	0.618525	-1.34454	1.46032	-0.000960069	-0.00402443	-0.000358979	-5995.44	551295	-3.96556e+06	
55411	0.618525	-1.34454	1.46032	-0.000967983	-0.00329672	-0.00559352	-5995.44	551295	-3.96556e+06	
55442	0.615224	-1.34634	1.46027	-0.000969422	-0.00316441	-0.00654525	-1.39986e+07	-8.70472e+06	-1.61725e+06	
55471	0.621732	-1.34534	1.45863	-0.00852869	-0.00786495	-0.00741857	2.00122e+07	3.05974e+06	-5.04553e+06	
55502	0.618985	-1.34489	1.4599	-0.00732796	-0.00768137	-0.0077213	-695948	6.59602e+06	1.89421e+06	
55531	0.618985	-1.34489	1.4599	-0.00797519	-0.00154707	-0.00595969	-695948	6.59602e+06	1.89421e+06	
55562	0.619799	-1.3437	1.45945	-0.00845539	0.00300418	-0.00465268	2.51049e+06	3.69406e+06	-1.36972e+06	
55591	0.617695	-1.34081	1.46037	-0.0080035	0.00366911	-0.00489923	-6.50229e+06	8.9237e+06	2.83894e+06	
55651	0.617897	-1.34213	1.46143	2.59529e-06	-0.00220439	1.97002e-10	626068	-4.07823e+06	3.2623e+06	
55712	0.618244	-1.34441	1.46174	0.0107945	-0.00619252	0.0118421	1.07272e+06	-7.0738e+06	968595	
55741	0.617981	-1.34306	1.46387	0.0113737	-0.0100124	0.0123652	-816357	4.19803e+06	6.63438e+06	
55832	0.615715	-1.34536	1.45775	-0.00035658	-0.000569988	1.20516e-10	-4.52324e+06	-1.1327e+07	-1.11329e+07	
55861	0.61312	-1.34648	1.45986	-0.00144216	-0.00328848	-0.0026719	-9.08564e+06	-1.30507e+06	8.43326e+06	
