MS	x	y	z	vx	vy	vz	ax	ay	az	
5325	0.103386	0.00566806	0.00645068	-1.63299e-10	-6.63498e-11	7.52718e-11	-0.276457	0.680414	0.313632	
5414	0.103319	0.00568219	0.0064218	-6.11908e-11	-3.18216e-11	2.54071e-11	-0.353573	0.679898	0.282301	
5594	0.103306	0.00561827	0.00652598	-3.59771e-10	-1.60767e-10	1.79237e-10	-0.282047	0.631177	0.314452	
5715	0.103317	0.00558975	0.00648804	-1.7801e-11	-8.25799e-12	1.17757e-11	-0.275266	0.593368	0.392525	
5775	0.10328	0.00566519	0.00650116	-1.21891e-10	-4.97633e-11	5.82033e-11	-0.276463	0.677172	0.323352	
6375	0.103395	0.00574378	0.00647838	-6.14298e-11	-2.90693e-11	2.81985e-11	-0.322992	0.682554	0.313317	
6435	0.103303	0.00565594	0.00644943	-1.401e-10	-5.85494e-11	6.59141e-11	-0.278806	0.667143	0.313877	
6825	0.103431	0.00570917	0.00649961	-1.38811e-10	-6.3763e-11	6.58066e-11	-0.303633	0.661003	0.313365	
7215	0.103339	0.0057349	0.00647298	-1.25765e-10	-5.82501e-11	6.61164e-11	-0.277382	0.598881	0.31484	
7575	0.103295	0.00570537	0.00642753	-1.43134e-10	-5.87425e-11	8.22289e-11	-0.279726	0.681592	0.391566	
7604	0.103295	0.00570537	0.00642753	-1.2285e-10	-4.98612e-11	7.03233e-11	-0.277007	0.6825	0.390685	
7995	0.103347	0.00573454	0.00647203	-5.50178e-11	-3.13303e-11	2.53355e-11	-0.348115	0.611309	0.281506	
8084	0.103289	0.0057576	0.00654605	-9.04315e-11	-5.32065e-11	3.89323e-11	-0.35471	0.602876	0.259549	
8264	0.10327	0.00573318	0.00639378	-9.70933e-11	-4.89488e-11	4.7264e-11	-0.326326	0.647289	0.315094	
8715	0.103397	0.00570947	0.00648002	-7.20938e-11	-4.20898e-11	2.77631e-11	-0.350749	0.600782	0.231359	
8745	0.103397	0.00570947	0.00648002	-1.80578e-10	-1.04832e-10	7.23607e-11	-0.349439	0.601926	0.241202	
8865	0.103406	0.00576473	0.00651869	-7.89791e-11	-4.21979e-11	3.75129e-11	-0.351649	0.658159	0.312607	
9254	0.103304	0.00567293	0.00643971	-3.62211e-11	-1.65753e-11	1.91729e-11	-0.276255	0.603685	0.319549	
9314	0.103543	0.00566663	0.00654242	-5.58796e-11	-3.08869e-11	2.5279e-11	-0.343188	0.620884	0.280878	
9915	0.103437	0.00573048	0.00653246	-2.22963e-05	-1.62176e-05	-5.05017e-06	-1241.47	4596.57	1036.02	
10695	0.103304	0.00568184	0.00645745	-1.08517e-10	-6.29483e-11	5.87827e-11	-0.349713	0.602871	0.326571	
11294	0.103313	0.0056772	0.00647942	-8.05292e-11	-4.1632e-11	3.77037e-11	-0.346933	0.671077	0.314198	
11654	0.103201	0.00577309	0.00647128	-2.16372e-10	-1.26868e-10	1.01054e-10	-0.352411	0.601034	0.280706	
11714	0.103241	0.0056985	0.00645881	-9.27912e-11	-4.19881e-11	4.71943e-11	-0.27992	0.618608	0.314629	
11984	0.103385	0.00564106	0.00646404	-7.25242e-06	2.25411e-05	2.17459e-06	-5023.37	-351.097	-5732.04	
12165	0.103121	0.00556658	0.00639292	-5.10422e-10	-2.14567e-10	1.84426e-10	-0.286089	0.680563	0.245902	
12584	0.10315	0.00552207	0.00637527	-5.62538e-11	-2.4095e-11	3.0805e-11	-0.267722	0.625042	0.342277	
12735	0.103244	0.00556043	0.00645579	-5.18896e-11	-7.36826e-12	2.0945e-11	-0.0818695	0.576551	0.232722	
12885	0.102917	0.00741411	0.00642021	-1.26916e-10	-4.94381e-11	6.5827e-11	-0.183104	0.470059	0.243804	
13245	0.101891	0.00604574	0.00650747	-1.10901e-10	-5.41322e-11	9.02013e-11	-0.257772	0.528101	0.42953	
13694	0.101249	0.00644059	0.00647474	-6.79146e-11	-1.74052e-11	4.27535e-11	-0.145043	0.565955	0.356279	
13754	0.101403	0.00726337	0.00698543	-1.06372e-10	1.78497e-11	6.19168e-11	0.099165	0.590955	0.343982	
13904	0.101843	0.00673455	0.00712746	-8.11713e-11	-6.43951e-11	3.80251e-11	-0.536626	0.676427	0.316876	
13994	0.101058	0.00613636	0.00670062	-1.65932e-11	-7.08531e-12	4.5455e-11	-0.0590443	0.138277	0.378791	
14145	0.101411	0.00682833	0.00634342	-1.10399e-10	-5.91775e-11	3.22748e-11	-0.281798	0.525708	0.153689	
14714	0.0940746	0.00506336	0.00516839	-5.36023e-11	-3.1163e-11	-5.9403e-12	-0.259692	0.446686	-0.0495025	
14894	0.0867972	0.0127933	0.00207244	-1.03376e-10	3.4115e-11	-6.69235e-11	0.126352	0.382874	-0.247865	
15045	0.0712675	0.0578063	-0.0183136	-6.3044e-11	-6.51376e-11	-2.27962e-10	-0.217125	0.210147	-0.759874	
15105	0.06575	0.0851007	-0.0315959	-1.67227e-10	-1.47964e-10	-3.147e-10	-0.352296	0.39816	-0.749286	
15135	0.06575	0.0851007	-0.0315959	-1.7186e-10	-1.27237e-10	-2.14011e-10	-0.530155	0.716084	-0.891714	
15675	0.18054	0.53932	-0.592505	0.144777	0.0354588	-3.0136e-10	-0.457923	0.639645	-2.51133	
16034	0.471813	1.08928	-1.27501	-0.284726	0.749586	8.79761e-11	-0.64086	0.393607	0.366567	
16065	0.471813	1.08928	-1.27501	-0.206057	0.688673	2.88411e-11	-0.75991	0.332866	0.240343	
16515	0.722592	1.73003	-1.82489	-0.045029	0.295455	1.42261e-10	-0.333005	0.590165	1.58068	
16575	0.737057	1.77741	-1.81875	-0.0365272	0.263159	4.32941e-10	-0.377749	0.528415	1.20261	
16605	0.737057	1.77741	-1.81875	-0.0328659	0.261186	1.68902e-10	-0.246077	0.55826	0.804297	
17354	0.75303	1.84064	-1.58887	0.0360138	-0.134354	1.5674e-10	-0.266072	0.513807	0.522466	
17414	0.749437	1.83128	-1.60058	0.0553934	-0.120429	1.58445e-10	-0.227669	0.625277	0.52815	
17834	0.707741	1.75699	-1.63147	0.050941	-0.0677571	1.49533e-10	-0.0778778	0.587597	0.498443	
18074	0.685716	1.71678	-1.62659	0.0342305	-0.0697272	4.17626e-11	-0.313454	0.622526	0.107084	
18315	0.662332	1.69964	-1.62655	0.0345858	-0.0833043	8.55208e-12	-0.313275	0.638875	0.0570139	
18885	0.6178	1.56887	-1.65023	0.0208919	-0.0285096	9.2864e-11	-0.356191	0.606653	0.515911	
18945	0.612068	1.56618	-1.64561	0.00284936	-0.0339302	1.09617e-10	-0.218943	0.599994	0.405989	
18975	0.612068	1.56618	-1.64561	-0.000419484	-0.043524	3.98435e-11	-0.37531	0.658263	0.332029	
19214	0.626338	1.54668	-1.62695	-0.045132	-0.041559	2.34643e-11	-0.353884	0.605176	0.156429	
19605	0.665558	1.49565	-1.60296	-0.0657716	-0.0492984	7.65025e-11	-0.266708	0.601447	0.31876	
19814	0.693018	1.48183	-1.59948	-0.0536161	-0.0125447	2.28499e-11	-0.538642	0.622843	0.126944	
20025	0.730948	1.45463	-1.60035	-0.0698699	-0.0582157	7.44729e-11	-0.250133	0.565503	0.354633	
20115	0.744705	1.44275	-1.5957	-0.0499599	-0.0503694	8.77785e-11	-0.385511	0.592255	0.417993	
20444	0.789383	1.40579	-1.61142	-0.0414931	-0.0153622	6.33213e-11	-0.442615	0.621229	0.191883	
21254	0.895449	1.26034	-1.66435	-0.103023	-0.132838	7.00734e-11	-0.318462	0.441934	0.583945	
21645	0.952296	1.15948	-1.63008	-0.0268251	-0.0493636	7.28247e-11	-0.374968	0.564479	0.485498	
21735	0.9569	1.14806	-1.62322	-0.00237289	-0.0294429	2.25733e-11	-0.276624	0.599969	0.376221	
23234	1.11625	1.2776	-1.50682	-0.104306	0.148254	1.96997e-11	-0.40932	0.614344	0.328328	
24075	1.25257	1.37779	-1.6202	-0.0758361	-0.12917	1.6148e-10	-0.462547	0.638251	0.489334	
24494	1.30991	1.18252	-1.61449	-0.0488552	-0.346393	1.07944e-10	-0.289062	0.630325	0.399794	
25125	1.26767	0.653064	-1.50939	0.0901271	-0.39584	2.86381e-11	-0.177363	0.730817	0.477301	
25484	1.22606	0.38715	-1.50871	0.0450581	-0.280634	6.77889e-11	-0.288906	0.704087	0.188303	
25544	1.21534	0.351011	-1.4964	0.0476544	-0.222075	1.02798e-10	-0.278869	0.738423	0.263585	
25575	1.21534	0.351011	-1.4964	0.0297154	-0.245978	4.96829e-11	-0.323225	0.58257	0.414024	
25634	1.20243	0.315473	-1.50344	0.0256552	-0.229691	6.99623e-11	-0.225389	0.581566	0.333154	
25904	1.18308	0.202047	-1.51273	0.274282	0.0178304	-0.00306041	-1.95926e+06	-3.68331e+06	-343633	
25935	1.18308	0.202047	-1.51273	0.277708	0.0160083	-0.00337998	-1.95926e+06	-3.68331e+06	-343633	
25964	1.18308	0.202047	-1.51273	0.280912	0.0143037	-0.00367894	-1.95926e+06	-3.68331e+06	-343633	
25995	1.18308	0.202047	-1.51273	0.284338	0.0124816	-0.00399852	-1.95926e+06	-3.68331e+06	-343633	
26024	1.18308	0.202047	-1.51273	0.287542	0.010777	-0.00429748	-1.95926e+06	-3.68331e+06	-343633	
26055	1.18308	0.202047	-1.51273	0.290968	0.00895494	-0.00461706	-1.95926e+06	-3.68331e+06	-343633	
26084	1.18308	0.202047	-1.51273	0.294172	0.00725039	-0.00491602	-1.95926e+06	-3.68331e+06	-343633	
26115	1.18308	0.202047	-1.51273	0.297598	0.00542828	-0.0052356	-1.95926e+06	-3.68331e+06	-343633	
26144	1.18308	0.202047	-1.51273	0.300802	0.00372373	-0.00553456	-1.95926e+06	-3.68331e+06	-343633	
29175	1.3365	0.597321	-1.28538	-0.0789011	-0.0212857	1.93617e-11	-0.41772	0.691063	0.21513	
29385	1.43493	0.570858	-1.27494	-0.0497713	-0.0490316	4.18316e-12	-0.547251	0.646197	0.0278877	
29475	1.43925	0.564121	-1.28115	-0.0465004	-0.064732	-9.3758e-12	-0.418868	0.739363	-0.0781317	
29595	1.45809	0.55781	-1.29918	0.0746442	-0.0286713	-0.0313467	2.33187e+06	-2.02599e+06	-5.79556e+06	
29624	1.45809	0.55781	-1.29918	0.0764069	-0.0266425	-0.0363888	2.33187e+06	-2.02599e+06	-5.79556e+06	
29654	1.45809	0.55781	-1.29918	0.0782302	-0.0245438	-0.0416048	2.33187e+06	-2.02599e+06	-5.79556e+06	
29685	1.45809	0.55781	-1.29918	0.0801144	-0.0223752	-0.0469947	2.33187e+06	-2.02599e+06	-5.79556e+06	
29714	1.45809	0.55781	-1.29918	0.081877	-0.0203465	-0.0520368	2.33187e+06	-2.02599e+06	-5.79556e+06	
29745	1.45809	0.55781	-1.29918	0.0837612	-0.0181778	-0.0574267	2.33187e+06	-2.02599e+06	-5.79556e+06	
29775	1.45809	0.55781	-1.29918	0.0855846	-0.0160792	-0.0626427	2.33187e+06	-2.02599e+06	-5.79556e+06	
29805	1.45809	0.55781	-1.29918	0.0873472	-0.0140504	-0.0676848	2.33187e+06	-2.02599e+06	-5.79556e+06	
29835	1.45809	0.55781	-1.29918	0.0892313	-0.0118818	-0.0730747	2.33187e+06	-2.02599e+06	-5.79556e+06	
29865	1.45809	0.55781	-1.29918	0.0910547	-0.0097831	-0.0782907	2.33187e+06	-2.02599e+06	-5.79556e+06	
29895	1.45809	0.55781	-1.29918	0.0928781	-0.00768442	-0.0835067	2.33187e+06	-2.02599e+06	-5.79556e+06	
29925	1.45809	0.55781	-1.29918	0.0947015	-0.00558573	-0.0887227	2.33187e+06	-2.02599e+06	-5.79556e+06	
29955	1.45809	0.55781	-1.29918	0.0965249	-0.00348705	-0.0939387	2.33187e+06	-2.02599e+06	-5.79556e+06	
29985	1.45809	0.55781	-1.29918	0.0983483	-0.00138837	-0.0991547	2.33187e+06	-2.02599e+06	-5.79556e+06	
30015	1.45809	0.55781	-1.29918	0.100172	0.000710315	-0.104371	2.33187e+06	-2.02599e+06	-5.79556e+06	
30044	1.45809	0.55781	-1.29918	0.101934	0.00273904	-0.109413	2.33187e+06	-2.02599e+06	-5.79556e+06	
30074	1.45809	0.55781	-1.29918	0.103758	0.00483773	-0.114629	2.33187e+06	-2.02599e+06	-5.79556e+06	
30105	1.45809	0.55781	-1.29918	0.105642	0.00700637	-0.120019	2.33187e+06	-2.02599e+06	-5.79556e+06	
30134	1.45809	0.55781	-1.29918	0.107404	0.00903509	-0.125061	2.33187e+06	-2.02599e+06	-5.79556e+06	
30164	1.45809	0.55781	-1.29918	0.109228	0.0111338	-0.130277	2.33187e+06	-2.02599e+06	-5.79556e+06	
30195	1.45809	0.55781	-1.29918	0.111112	0.0133024	-0.135667	2.33187e+06	-2.02599e+06	-5.79556e+06	
30224	1.45809	0.55781	-1.29918	0.112875	0.0153311	-0.140709	2.33187e+06	-2.02599e+06	-5.79556e+06	
30254	1.45809	0.55781	-1.29918	0.114698	0.0174298	-0.145925	2.33187e+06	-2.02599e+06	-5.79556e+06	
30285	1.45809	0.55781	-1.29918	0.116521	0.0195285	-0.151141	2.33187e+06	-2.02599e+06	-5.79556e+06	
30315	1.45809	0.55781	-1.29918	0.118406	0.0216971	-0.156531	2.33187e+06	-2.02599e+06	-5.79556e+06	
30345	1.45809	0.55781	-1.29918	0.120229	0.0237958	-0.161747	2.33187e+06	-2.02599e+06	-5.79556e+06	
30375	1.45809	0.55781	-1.29918	0.122052	0.0258945	-0.166963	2.33187e+06	-2.02599e+06	-5.79556e+06	
30405	1.45809	0.55781	-1.29918	0.123876	0.0279932	-0.172179	2.33187e+06	-2.02599e+06	-5.79556e+06	
30435	1.45809	0.55781	-1.29918	0.125699	0.0300919	-0.177395	2.33187e+06	-2.02599e+06	-5.79556e+06	
30464	1.45809	0.55781	-1.29918	0.127462	0.0321206	-0.182437	2.33187e+06	-2.02599e+06	-5.79556e+06	
30495	1.45809	0.55781	-1.29918	0.129346	0.0342892	-0.187827	2.33187e+06	-2.02599e+06	-5.79556e+06	
30524	1.45809	0.55781	-1.29918	0.131109	0.036318	-0.192869	2.33187e+06	-2.02599e+06	-5.79556e+06	
30554	1.45809	0.55781	-1.29918	0.132932	0.0384167	-0.198085	2.33187e+06	-2.02599e+06	-5.79556e+06	
30584	1.45809	0.55781	-1.29918	0.134755	0.0405153	-0.203301	2.33187e+06	-2.02599e+06	-5.79556e+06	
30615	1.45809	0.55781	-1.29918	0.136639	0.042684	-0.208691	2.33187e+06	-2.02599e+06	-5.79556e+06	
30645	1.45809	0.55781	-1.29918	0.138463	0.0447827	-0.213907	2.33187e+06	-2.02599e+06	-5.79556e+06	
30674	1.45809	0.55781	-1.29918	0.140225	0.0468114	-0.218949	2.33187e+06	-2.02599e+06	-5.79556e+06	
30705	1.45809	0.55781	-1.29918	0.14211	0.04898	-0.224339	2.33187e+06	-2.02599e+06	-5.79556e+06	
30735	1.45809	0.55781	-1.29918	0.143933	0.0510787	-0.229555	2.33187e+06	-2.02599e+06	-5.79556e+06	
30765	1.45809	0.55781	-1.29918	0.145756	0.0531774	-0.234771	2.33187e+06	-2.02599e+06	-5.79556e+06	
30795	1.45809	0.55781	-1.29918	0.14758	0.0552761	-0.239987	2.33187e+06	-2.02599e+06	-5.79556e+06	
30825	1.45809	0.55781	-1.29918	0.149403	0.0573748	-0.245203	2.33187e+06	-2.02599e+06	-5.79556e+06	
30854	1.45809	0.55781	-1.29918	0.151166	0.0594035	-0.250245	2.33187e+06	-2.02599e+06	-5.79556e+06	
30884	1.45809	0.55781	-1.29918	0.152989	0.0615022	-0.255461	2.33187e+06	-2.02599e+06	-5.79556e+06	
30915	1.45809	0.55781	-1.29918	0.154873	0.0636708	-0.260851	2.33187e+06	-2.02599e+06	-5.79556e+06	
30945	1.45809	0.55781	-1.29918	0.156697	0.0657695	-0.266067	2.33187e+06	-2.02599e+06	-5.79556e+06	
30974	1.45809	0.55781	-1.29918	0.158459	0.0677982	-0.271109	2.33187e+06	-2.02599e+06	-5.79556e+06	
31005	1.45809	0.55781	-1.29918	0.160344	0.0699669	-0.276499	2.33187e+06	-2.02599e+06	-5.79556e+06	
31035	1.45809	0.55781	-1.29918	0.162106	0.0719956	-0.281541	2.33187e+06	-2.02599e+06	-5.79556e+06	
31065	1.45809	0.55781	-1.29918	0.16399	0.0741642	-0.286931	2.33187e+06	-2.02599e+06	-5.79556e+06	
31095	1.45809	0.55781	-1.29918	0.165814	0.0762629	-0.292147	2.33187e+06	-2.02599e+06	-5.79556e+06	
31125	1.45809	0.55781	-1.29918	0.167637	0.0783616	-0.297363	2.33187e+06	-2.02599e+06	-5.79556e+06	
31155	1.45809	0.55781	-1.29918	0.16946	0.0804603	-0.302579	2.33187e+06	-2.02599e+06	-5.79556e+06	
31185	1.45809	0.55781	-1.29918	0.171284	0.082559	-0.307795	2.33187e+06	-2.02599e+06	-5.79556e+06	
31215	1.45809	0.55781	-1.29918	0.173107	0.0846576	-0.313011	2.33187e+06	-2.02599e+06	-5.79556e+06	
31245	1.45809	0.55781	-1.29918	0.174931	0.0867563	-0.318227	2.33187e+06	-2.02599e+06	-5.79556e+06	
31275	1.45809	0.55781	-1.29918	0.176754	0.088855	-0.323443	2.33187e+06	-2.02599e+06	-5.79556e+06	
31304	1.45809	0.55781	-1.29918	0.178517	0.0908837	-0.328485	2.33187e+06	-2.02599e+06	-5.79556e+06	
31335	1.45809	0.55781	-1.29918	0.18034	0.0929824	-0.333701	2.33187e+06	-2.02599e+06	-5.79556e+06	
31365	1.45809	0.55781	-1.29918	0.182224	0.0951511	-0.339091	2.33187e+06	-2.02599e+06	-5.79556e+06	
31394	1.45809	0.55781	-1.29918	0.183987	0.0971798	-0.344133	2.33187e+06	-2.02599e+06	-5.79556e+06	
31424	1.45809	0.55781	-1.29918	0.18581	0.0992785	-0.349349	2.33187e+06	-2.02599e+06	-5.79556e+06	
31455	1.45809	0.55781	-1.29918	0.187694	0.101447	-0.354739	2.33187e+06	-2.02599e+06	-5.79556e+06	
31485	1.45809	0.55781	-1.29918	0.189518	0.103546	-0.359955	2.33187e+06	-2.02599e+06	-5.79556e+06	
31515	1.45809	0.55781	-1.29918	0.191341	0.105644	-0.365171	2.33187e+06	-2.02599e+06	-5.79556e+06	
31545	1.45809	0.55781	-1.29918	0.193165	0.107743	-0.370387	2.33187e+06	-2.02599e+06	-5.79556e+06	
31575	1.45809	0.55781	-1.29918	0.194927	0.109772	-0.375429	2.33187e+06	-2.02599e+06	-5.79556e+06	
31605	1.45809	0.55781	-1.29918	0.196751	0.111871	-0.380645	2.33187e+06	-2.02599e+06	-5.79556e+06	
31635	1.45809	0.55781	-1.29918	0.198635	0.114039	-0.386035	2.33187e+06	-2.02599e+06	-5.79556e+06	
31664	1.45809	0.55781	-1.29918	0.200397	0.116068	-0.391077	2.33187e+06	-2.02599e+06	-5.79556e+06	
31694	1.45809	0.55781	-1.29918	0.202221	0.118167	-0.396293	2.33187e+06	-2.02599e+06	-5.79556e+06	
31725	1.45809	0.55781	-1.29918	0.204105	0.120335	-0.401683	2.33187e+06	-2.02599e+06	-5.79556e+06	
31755	1.45809	0.55781	-1.29918	0.205928	0.122434	-0.406899	2.33187e+06	-2.02599e+06	-5.79556e+06	
31785	1.45809	0.55781	-1.29918	0.207752	0.124533	-0.412115	2.33187e+06	-2.02599e+06	-5.79556e+06	
31815	1.45809	0.55781	-1.29918	0.209575	0.126631	-0.417331	2.33187e+06	-2.02599e+06	-5.79556e+06	
31845	1.45809	0.55781	-1.29918	0.211398	0.12873	-0.422547	2.33187e+06	-2.02599e+06	-5.79556e+06	
31875	1.45809	0.55781	-1.29918	0.213222	0.130829	-0.427763	2.33187e+06	-2.02599e+06	-5.79556e+06	
31904	1.45809	0.55781	-1.29918	0.214984	0.132857	-0.432805	2.33187e+06	-2.02599e+06	-5.79556e+06	
31935	1.45809	0.55781	-1.29918	0.216869	0.135026	-0.438195	2.33187e+06	-2.02599e+06	-5.79556e+06	
31965	1.45809	0.55781	-1.29918	0.218692	0.137125	-0.443411	2.33187e+06	-2.02599e+06	-5.79556e+06	
31995	1.45809	0.55781	-1.29918	0.220515	0.139223	-0.448627	2.33187e+06	-2.02599e+06	-5.79556e+06	
32024	1.45809	0.55781	-1.29918	0.222278	0.141252	-0.453669	2.33187e+06	-2.02599e+06	-5.79556e+06	
32055	1.45809	0.55781	-1.29918	0.224162	0.143421	-0.459059	2.33187e+06	-2.02599e+06	-5.79556e+06	
32085	1.45809	0.55781	-1.29918	0.225986	0.145519	-0.464275	2.33187e+06	-2.02599e+06	-5.79556e+06	
32114	1.45809	0.55781	-1.29918	0.227748	0.147548	-0.469317	2.33187e+06	-2.02599e+06	-5.79556e+06	
32144	1.45809	0.55781	-1.29918	0.229572	0.149647	-0.474533	2.33187e+06	-2.02599e+06	-5.79556e+06	
32174	1.45809	0.55781	-1.29918	0.231395	0.151746	-0.479749	2.33187e+06	-2.02599e+06	-5.79556e+06	
32205	1.45809	0.55781	-1.29918	0.233279	0.153914	-0.485139	2.33187e+06	-2.02599e+06	-5.79556e+06	
32235	1.45809	0.55781	-1.29918	0.235102	0.156013	-0.490355	2.33187e+06	-2.02599e+06	-5.79556e+06	
32264	1.45809	0.55781	-1.29918	0.236865	0.158042	-0.495397	2.33187e+06	-2.02599e+06	-5.79556e+06	
32294	1.45809	0.55781	-1.29918	0.238688	0.16014	-0.500613	2.33187e+06	-2.02599e+06	-5.79556e+06	
32324	1.45809	0.55781	-1.29918	0.240512	0.162239	-0.505829	2.33187e+06	-2.02599e+06	-5.79556e+06	
32354	1.45809	0.55781	-1.29918	0.242335	0.164338	-0.511045	2.33187e+06	-2.02599e+06	-5.79556e+06	
32384	1.45809	0.55781	-1.29918	0.244159	0.166436	-0.516261	2.33187e+06	-2.02599e+06	-5.79556e+06	
32414	1.45809	0.55781	-1.29918	0.245982	0.168535	-0.521477	2.33187e+06	-2.02599e+06	-5.79556e+06	
32445	1.45809	0.55781	-1.29918	0.247866	0.170704	-0.526867	2.33187e+06	-2.02599e+06	-5.79556e+06	
32475	1.45809	0.55781	-1.29918	0.24969	0.172802	-0.532083	2.33187e+06	-2.02599e+06	-5.79556e+06	
32505	1.45809	0.55781	-1.29918	0.251513	0.174901	-0.537299	2.33187e+06	-2.02599e+06	-5.79556e+06	
32535	1.45809	0.55781	-1.29918	0.253336	0.177	-0.542515	2.33187e+06	-2.02599e+06	-5.79556e+06	
32565	1.45809	0.55781	-1.29918	0.25516	0.179098	-0.547731	2.33187e+06	-2.02599e+06	-5.79556e+06	
32595	1.45809	0.55781	-1.29918	0.256983	0.181197	-0.552947	2.33187e+06	-2.02599e+06	-5.79556e+06	
32625	1.45809	0.55781	-1.29918	0.258806	0.183296	-0.558163	2.33187e+06	-2.02599e+06	-5.79556e+06	
32654	1.45809	0.55781	-1.29918	0.260569	0.185324	-0.563205	2.33187e+06	-2.02599e+06	-5.79556e+06	
32685	1.45809	0.55781	-1.29918	0.262392	0.187423	-0.568421	2.33187e+06	-2.02599e+06	-5.79556e+06	
32715	1.45809	0.55781	-1.29918	0.264277	0.189592	-0.573811	2.33187e+06	-2.02599e+06	-5.79556e+06	
32745	1.45809	0.55781	-1.29918	0.2661	0.191691	-0.579027	2.33187e+06	-2.02599e+06	-5.79556e+06	
32775	1.45809	0.55781	-1.29918	0.267923	0.193789	-0.584243	2.33187e+06	-2.02599e+06	-5.79556e+06	
32805	1.45809	0.55781	-1.29918	0.269747	0.195888	-0.589459	2.33187e+06	-2.02599e+06	-5.79556e+06	
32834	1.45809	0.55781	-1.29918	0.271509	0.197917	-0.594501	2.33187e+06	-2.02599e+06	-5.79556e+06	
32865	1.45809	0.55781	-1.29918	0.273333	0.200015	-0.599717	2.33187e+06	-2.02599e+06	-5.79556e+06	
32894	1.45809	0.55781	-1.29918	0.275156	0.202114	-0.604933	2.33187e+06	-2.02599e+06	-5.79556e+06	
32924	1.45809	0.55781	-1.29918	0.27698	0.204213	-0.610149	2.33187e+06	-2.02599e+06	-5.79556e+06	
32955	1.45809	0.55781	-1.29918	0.278803	0.206311	-0.615365	2.33187e+06	-2.02599e+06	-5.79556e+06	
32985	1.45809	0.55781	-1.29918	0.280687	0.20848	-0.620755	2.33187e+06	-2.02599e+06	-5.79556e+06	
33014	1.45809	0.55781	-1.29918	0.28245	0.210509	-0.625797	2.33187e+06	-2.02599e+06	-5.79556e+06	
33044	1.45809	0.55781	-1.29918	0.284273	0.212607	-0.631013	2.33187e+06	-2.02599e+06	-5.79556e+06	
33075	1.45809	0.55781	-1.29918	0.286157	0.214776	-0.636403	2.33187e+06	-2.02599e+06	-5.79556e+06	
33105	1.45809	0.55781	-1.29918	0.287981	0.216875	-0.641619	2.33187e+06	-2.02599e+06	-5.79556e+06	
33135	1.45809	0.55781	-1.29918	0.289804	0.218973	-0.646835	2.33187e+06	-2.02599e+06	-5.79556e+06	
33164	1.45809	0.55781	-1.29918	0.291567	0.221002	-0.651877	2.33187e+06	-2.02599e+06	-5.79556e+06	
33195	1.45809	0.55781	-1.29918	0.29339	0.223101	-0.657093	2.33187e+06	-2.02599e+06	-5.79556e+06	
33225	1.45809	0.55781	-1.29918	0.295274	0.225269	-0.662483	2.33187e+06	-2.02599e+06	-5.79556e+06	
33255	1.45809	0.55781	-1.29918	0.297098	0.227368	-0.667699	2.33187e+06	-2.02599e+06	-5.79556e+06	
33285	1.45809	0.55781	-1.29918	0.298921	0.229467	-0.672915	2.33187e+06	-2.02599e+06	-5.79556e+06	
33314	1.45809	0.55781	-1.29918	0.300684	0.231496	-0.677957	2.33187e+06	-2.02599e+06	-5.79556e+06	
33345	1.45809	0.55781	-1.29918	0.302568	0.233664	-0.683347	2.33187e+06	-2.02599e+06	-5.79556e+06	
33375	1.45809	0.55781	-1.29918	0.304391	0.235763	-0.688563	2.33187e+06	-2.02599e+06	-5.79556e+06	
33405	1.45809	0.55781	-1.29918	0.306215	0.237862	-0.693779	2.33187e+06	-2.02599e+06	-5.79556e+06	
33435	1.45809	0.55781	-1.29918	0.308038	0.23996	-0.698995	2.33187e+06	-2.02599e+06	-5.79556e+06	
33465	1.45809	0.55781	-1.29918	0.309861	0.242059	-0.704211	2.33187e+06	-2.02599e+06	-5.79556e+06	
33495	1.45809	0.55781	-1.29918	0.311685	0.244158	-0.709427	2.33187e+06	-2.02599e+06	-5.79556e+06	
33524	1.45809	0.55781	-1.29918	0.313447	0.246186	-0.714469	2.33187e+06	-2.02599e+06	-5.79556e+06	
33944	1.72787	0.47037	-1.36705	-0.02085	0.0379631	7.49217e-11	-0.58537	0.774409	0.499478	
35354	1.02489	0.751592	-1.41105	0.514947	0.289876	4.50106e-11	-0.657176	1.02637	0.250059	
35415	0.947981	0.78065	-1.42658	0.528559	0.323687	4.05016e-11	-0.569428	0.990253	0.337513	
35714	0.678658	0.897744	-1.46507	0.602071	0.294614	1.23477e-10	-0.540909	0.929507	0.41159	
36074	0.198715	1.07185	-1.50564	0.529595	0.263189	5.82607e-11	-0.54447	0.8436	0.194202	
36105	0.198715	1.07185	-1.50564	0.494437	0.229582	7.73895e-12	-0.5719	0.843773	0.128983	
36194	0.0995869	1.11551	-1.51595	0.485221	0.222726	1.13314e-10	-0.507172	0.890089	0.209841	
36345	-0.0211939	1.17663	-1.54903	0.380383	0.155648	2.32329e-11	-0.548343	0.768708	0.258143	
36494	-0.247916	1.25537	-1.58982	0.394322	0.0684661	1.59986e-10	-0.443591	0.697856	0.533287	
36525	-0.247916	1.25537	-1.58982	0.352465	0.077443	1.2008e-10	-0.426884	0.798123	0.500333	
36674	-0.355958	1.26673	-1.60391	0.346557	0.00823962	6.82123e-11	-0.463877	0.661608	0.454748	
36944	-0.581836	1.23135	-1.6055	0.286455	-0.0958373	1.90621e-10	-0.347938	0.705078	0.907717	
37244	-0.693153	1.15539	-1.54916	0.0842161	-0.186961	9.22543e-12	-0.393306	0.591236	0.0768786	
37304	-0.689546	1.13951	-1.53412	0.0614091	-0.179183	2.03661e-11	-0.405679	0.463329	0.0848589	
37365	-0.720505	1.10032	-1.52357	0.0641333	-0.164624	5.0156e-12	-0.387207	0.493157	0.0334373	
37575	-0.746837	1.0249	-1.49222	0.010743	-0.15971	1.29499e-10	-0.322406	0.385746	0.332048	
37725	-0.752626	0.973049	-1.47432	-0.025323	-0.117421	1.15044e-11	-0.32559	0.440283	0.127827	
37754	-0.752626	0.973049	-1.47432	-0.0268422	-0.0995192	1.30588e-11	-0.254961	0.384	0.0725487	
37785	-0.752626	0.973049	-1.47432	-0.0468791	-0.0908492	2.62498e-11	-0.430818	0.506752	0.124999	
38385	-0.62938	0.872838	-1.47987	-0.240598	0.0404377	6.49889e-11	-0.457832	0.411581	0.309471	
38534	-0.555489	0.885101	-1.48917	-0.259808	0.0489121	2.48044e-11	-0.533433	0.31774	0.275604	
38594	-0.526328	0.89605	-1.4938	-0.263393	0.0667053	8.38281e-11	-0.37392	0.359254	0.399181	
39104	-0.248511	1.05944	-1.54691	-0.397143	0.195752	8.48696e-11	-0.538523	0.275494	0.565798	
39135	-0.248511	1.05944	-1.54691	-0.390142	0.201704	1.2709e-10	-0.616804	0.168748	0.605191	
39375	-0.0255653	1.1763	-1.56495	-0.465513	0.18066	7.51305e-11	-0.485475	0.22188	0.50087	
39404	-0.0255653	1.1763	-1.56495	-0.470214	0.176472	1.8611e-10	-0.410024	0.342086	0.44312	
39975	0.525893	1.49508	-1.53387	-0.603121	0.284452	5.4608e-11	-0.462963	0.326374	0.606755	
40455	1.04722	1.77837	-1.47742	-0.56069	0.129377	6.09942e-11	-0.382375	0.364439	0.406628	
40784	1.34101	1.85879	-1.43569	-0.341394	-0.0389412	-5.52632e-12	-0.38783	0.528249	-0.0460527	
41084	1.50701	1.83858	-1.41557	-0.150454	-0.201244	3.19076e-11	-0.261192	0.515874	0.132948	
42075	1.38599	1.03345	-1.52833	0.537717	-0.499293	1.66393e-10	0.112998	0.856765	0.369763	
42585	0.914691	0.634295	-1.52058	0.697623	-0.0782827	2.751e-11	-0.0488572	0.950529	0.131	
43215	-0.135888	0.594835	-1.53945	0.544052	0.0668055	2.51682e-11	-0.525033	0.992938	0.0932157	
43275	-0.197647	0.609146	-1.53626	0.525702	0.043822	1.60156e-11	-0.381464	0.847234	0.0889753	
43574	-0.377972	0.610808	-1.62481	0.0283957	-0.0394697	8.12949e-11	-0.319697	0.703094	0.677457	
43664	-0.405292	0.599913	-1.63949	-0.0494404	-0.068578	7.47713e-11	-0.345721	0.400667	0.623094	
44714	-0.501496	0.552535	-1.62557	0.13363	0.0360301	4.51865e-11	-0.36602	0.485231	0.251036	
45854	-0.181183	0.906291	-1.50801	-0.473432	0.197067	2.82634e-11	-0.391883	0.486339	0.104679	
45915	-0.152981	0.922406	-1.50447	-0.481187	0.201842	4.29039e-11	-0.374075	0.281744	0.238355	
46395	0.285241	1.18867	-1.50975	-0.530279	0.21515	4.86525e-11	-0.357278	0.257188	0.32435	
47055	0.835046	1.56206	-1.55851	-0.270933	0.229746	6.96316e-11	-0.368678	0.378568	0.232105	
47444	0.967507	1.73385	-1.55788	0.000664458	0.127348	7.69236e-11	-0.236726	0.527122	0.320515	
47625	0.945956	1.77858	-1.54766	0.20262	0.0223808	-6.8578e-12	-0.380541	0.688116	-0.0571483	
47835	0.867226	1.77388	-1.5478	0.392987	-0.111043	-3.344e-12	-0.208112	0.845291	-0.0371555	
48014	0.754716	1.74102	-1.56168	0.516302	-0.208855	-2.31571e-11	-0.197787	0.916616	-0.0428835	
48044	0.754716	1.74102	-1.56168	0.516302	-0.208855	-6.17522e-11	-0.197787	0.916616	-0.0428835	
48375	0.375645	1.56359	-1.64485	0.701989	-0.273233	1.04827e-10	-0.132591	0.923958	0.499177	
48614	0.00816837	1.38478	-1.73446	0.843581	-0.317244	9.09671e-11	-0.0289284	0.985071	0.758059	
48644	0.00816837	1.38478	-1.73446	0.870589	-0.322144	2.27784e-10	0.017399	1.02368	0.690253	
49005	-0.629401	0.975832	-1.71921	0.788338	-0.41132	4.42536e-11	0.0664451	1.13562	0.245853	
50835	-0.91453	-1.22231	-1.63011	-0.346056	-0.39658	3.95718e-12	-0.114716	0.323102	0.131906	
51075	-0.770895	-1.37719	-1.52845	-0.388522	-0.32204	8.4709e-12	-0.0662751	0.303734	0.0166096	
51254	-0.647524	-1.4868	-1.47045	-0.48061	-0.298551	-1.42567e-11	-0.154939	0.31789	-0.237611	
51645	-0.338313	-1.61946	-1.48041	-0.451083	0.0355772	1.70744e-11	-0.328553	0.347389	0.284574	
52185	0.0918574	-1.40272	-1.53592	-0.419338	0.368592	1.76236e-10	-0.406474	0.282356	0.587455	
52365	0.213001	-1.26729	-1.54432	-0.409244	0.562255	1.11991e-10	-0.493242	0.290456	0.622174	
53265	0.748623	-0.237835	-1.53215	-0.0798358	0.327892	1.88495e-11	-0.775852	0.572316	0.125663	
53295	0.748623	-0.237835	-1.53215	-0.0603957	0.311845	2.67161e-11	-0.747919	0.569118	0.111317	
53384	0.756287	-0.166365	-1.54515	-0.0195263	0.248789	1.47848e-11	-0.709164	0.508559	0.164275	
53445	0.756814	-0.124282	-1.55649	0.0273112	0.248309	4.89789e-11	-0.601647	0.53581	0.326526	
53775	0.710528	0.0428779	-1.61531	0.179246	0.224198	5.29225e-11	-0.581167	0.893841	0.441021	
54015	0.613221	0.148329	-1.65988	0.301129	0.214803	3.71091e-11	-0.585339	0.715604	0.309243	
54674	0.00924256	0.486592	-1.76551	0.746303	0.363271	6.46897e-11	-0.337496	0.943219	0.359387	
54704	0.00924256	0.486592	-1.76551	0.72883	0.364086	3.87811e-11	-0.381769	1.13357	0.215451	
54735	0.00924256	0.486592	-1.76551	0.710866	0.341551	2.71402e-11	-0.506926	1.01024	0.301558	
54855	-0.228075	0.578955	-1.79208	0.862797	0.266651	1.5867e-10	-0.308109	1.09212	0.528901	
54915	-0.338407	0.606763	-1.79889	0.749551	0.246635	1.43653e-10	-0.39011	1.06333	0.435312	
55334	-0.884218	0.784549	-1.73914	0.155508	0.0907435	1.88308e-11	-0.307666	0.746625	0.313847	
55484	-0.956709	0.833208	-1.77026	-0.0297473	-0.024764	2.39963e-12	-0.297411	0.520839	0.0199969	
55904	-1.07787	0.793665	-1.82738	0.0270465	0.0209681	8.48867e-12	-0.189585	0.42632	0.0565911	
56114	-1.10069	0.810922	-1.8366	0.0960388	0.0777659	5.96495e-11	-0.242268	0.489047	0.662772	
56294	-1.1493	0.834549	-1.83172	0.0943087	0.0710417	1.01197e-10	-0.264772	0.616008	0.84331	
56535	-1.1859	0.871309	-1.8114	-0.0269275	-0.00369488	4.36468e-11	-0.207469	0.551178	0.363723	
56835	-1.21567	0.867875	-1.69475	-0.106616	-0.103951	-4.79859e-11	-0.135147	0.449876	-0.228505	
57134	-1.11807	0.821703	-1.73066	-0.198246	-0.113765	6.19384e-11	-0.255097	0.428855	0.294945	
57614	-0.86716	0.680766	-1.66663	-0.405169	-0.129497	9.09389e-11	-0.0280683	0.23897	0.336811	
57764	-0.742382	0.656171	-1.67488	-0.474454	-0.0975925	3.26317e-11	-0.0695511	0.264813	0.543861	
58034	-0.458792	0.598783	-1.6256	-0.61038	-0.102064	1.13523e-11	-0.182104	0.26678	0.189204	
58184	-0.316738	0.578785	-1.60962	-0.59367	-0.0830111	3.22424e-12	-0.23201	0.20887	0.0214949	
58335	-0.136373	0.557717	-1.58275	-0.611662	-0.083701	1.95681e-11	-0.103233	0.0619646	0.130454	
59115	0.6591	0.506666	-1.60669	-0.242952	-0.104699	7.54376e-11	-0.306643	0.349653	0.228599	
59595	0.794367	0.377709	-1.68996	0.132063	-0.238199	5.16844e-11	-0.156515	0.606119	0.430703	
59684	0.770959	0.32805	-1.72595	0.225865	-0.214426	4.4469e-11	-0.0673737	0.597907	0.370575	
60134	0.407478	0.14834	-1.83567	0.668986	-0.0717455	7.22997e-11	-0.233602	0.908553	0.200833	
60225	0.371926	0.140706	-1.83473	0.752755	-0.0651518	3.17357e-11	-0.0979455	1.03887	0.352619	
60404	0.0311628	0.0747955	-1.87704	0.978752	-0.000536804	2.95689e-10	-0.105729	1.06579	0.448014	
60735	-0.574596	0.0428064	-1.85237	0.945805	0.0613062	2.71585e-11	-0.272009	1.16638	0.301761	
61244	-1.26982	-0.0578393	-1.83566	-0.0296905	-0.0925965	-2.4144e-11	-0.357851	0.528088	-0.1006	
61605	-1.36909	-0.155227	-1.85984	-0.0551744	-0.009592	9.12183e-11	-0.249998	0.417253	0.304061	
62055	-1.3792	-0.105497	-1.86197	0.01902	0.087746	4.66334e-11	-0.183153	0.628412	0.388612	
62385	-1.41799	-0.0193067	-1.86494	0.059642	0.0670577	1.90225e-11	-0.324295	0.510741	0.158521	
62685	-1.47705	0.0538093	-1.84294	0.023128	0.138175	3.2409e-11	-0.151131	0.617666	0.21606	
62835	-1.51593	0.140615	-1.85707	0.0858884	0.139523	2.91797e-12	-0.496093	0.618715	0.0194531	
63884	-1.49575	0.333792	-1.88994	-0.109859	-0.177383	1.29813e-10	-0.126264	0.482431	0.393373	
64035	-1.46382	0.2685	-1.88384	-0.0431685	-0.0870422	1.28745e-11	-0.0899739	0.410461	0.14305	
64274	-1.45268	0.18889	-1.84989	0.0670914	0.0196788	7.65968e-11	-0.163387	0.416267	0.232112	
64395	-1.47245	0.19145	-1.82127	0.0190901	0.0680584	-1.61841e-11	-0.0769177	0.603554	-0.0449557	
64694	-1.52506	0.235216	-1.7592	0.0763143	0.0369855	-2.24653e-11	-0.300376	0.52488	-0.0832047	
64785	-1.54539	0.257092	-1.7551	0.155434	0.0259316	1.44096e-12	-0.180322	0.486207	0.00960639	
65115	-1.61238	0.264467	-1.76751	0.00404748	-0.0620396	6.52633e-11	-0.130945	0.452225	0.725148	
65144	-1.61238	0.264467	-1.76751	-0.0136183	-0.0678827	1.80116e-10	-0.0751149	0.412729	0.667096	
65594	-1.66635	0.163337	-1.73478	0.0296528	-0.0777625	9.24929e-12	-0.236708	0.430011	0.154155	
65865	-1.73409	0.0477639	-1.68919	0.114898	-0.0818551	7.50934e-11	0.0676017	0.471666	0.357588	
65925	-1.73585	0.0435513	-1.6835	0.16458	-0.0961068	4.71589e-11	-0.0297208	0.597078	0.314393	
66014	-1.75788	-0.000208467	-1.67569	0.0974393	-0.0829383	2.82659e-10	0.0880231	0.520265	0.448666	
66074	-1.77137	-0.00870426	-1.66789	0.0990873	-0.100273	3.39575e-11	-0.0576365	0.491143	0.377306	
66194	-1.80617	-0.0608859	-1.64935	0.112375	-0.087217	2.01753e-11	-0.151876	0.512908	0.134502	
66645	-1.85068	-0.184059	-1.65104	0.016808	-0.101601	-5.63076e-11	-0.397629	0.509149	-0.234615	
66674	-1.85068	-0.184059	-1.65104	0.030547	-0.0999165	-3.10431e-11	-0.333796	0.605127	-0.129346	
67035	-1.85861	-0.269821	-1.70631	-0.00644539	-0.0291646	2.48535e-10	-0.103472	0.431677	0.414225	
67304	-1.82023	-0.296503	-1.7645	-0.148397	0.0513826	7.07138e-11	-0.169242	0.369831	0.589282	
67395	-1.77236	-0.281186	-1.79341	-0.228147	0.0349519	4.06594e-11	-0.15027	0.311135	0.451771	
67664	-1.69033	-0.243056	-1.82533	-0.203354	0.104251	6.51009e-11	-0.18381	0.42979	0.361672	
67755	-1.66032	-0.224953	-1.83612	-0.207062	0.100801	1.27857e-10	-0.28595	0.468399	0.355157	
68535	-1.3986	0.00456386	-1.86906	-0.0968328	0.0478759	2.91385e-09	-0.0538954	0.421483	5.39601	
69014	-1.35094	0.0164472	-1.40867	-0.0321671	0.0126776	2.03894e-10	-0.158577	0.607779	0.424779	
69134	-1.37017	0.0114336	-1.247	-0.02452	0.00342862	1.16248e-13	-0.191506	0.665026	0.00129165	
69374	-1.43887	0.0125208	-0.880003	0.047023	-0.225813	1.19837	-4.58318e+07	-9.23085e+06	1.99203e+08	
69404	-1.43887	0.0125208	-0.880003	0.0553307	-0.267062	1.37765	-4.58318e+07	-9.23085e+06	1.99203e+08	
69435	-1.43887	0.0125208	-0.880003	0.0639154	-0.309685	1.56291	-4.58318e+07	-9.23085e+06	1.99203e+08	
69464	-1.43887	0.0125208	-0.880003	0.0719463	-0.349559	1.73622	-4.58318e+07	-9.23085e+06	1.99203e+08	
69495	-1.43887	0.0125208	-0.880003	0.080531	-0.392183	1.92148	-4.58318e+07	-9.23085e+06	1.99203e+08	
69524	-1.43887	0.0125208	-0.880003	0.0885618	-0.432056	2.09478	-4.58318e+07	-9.23085e+06	1.99203e+08	
69555	-1.43887	0.0125208	-0.880003	0.0971465	-0.47468	2.28004	-4.58318e+07	-9.23085e+06	1.99203e+08	
69584	-1.43887	0.0125208	-0.880003	0.105177	-0.514554	2.45335	-4.58318e+07	-9.23085e+06	1.99203e+08	
69615	-1.43887	0.0125208	-0.880003	0.113762	-0.557177	2.63861	-4.58318e+07	-9.23085e+06	1.99203e+08	
69645	-1.43887	0.0125208	-0.880003	0.12207	-0.598426	2.81789	-4.58318e+07	-9.23085e+06	1.99203e+08	
69674	-1.43887	0.0125208	-0.880003	0.130101	-0.638299	2.9912	-4.58318e+07	-9.23085e+06	1.99203e+08	
69705	-1.43887	0.0125208	-0.880003	0.138685	-0.680923	3.17646	-4.58318e+07	-9.23085e+06	1.99203e+08	
69735	-1.43887	0.0125208	-0.880003	0.146993	-0.722172	3.35574	-4.58318e+07	-9.23085e+06	1.99203e+08	
69765	-1.43887	0.0125208	-0.880003	0.155024	-0.762045	3.52904	-4.58318e+07	-9.23085e+06	1.99203e+08	
69795	-1.43887	0.0125208	-0.880003	0.163609	-0.804669	3.7143	-4.58318e+07	-9.23085e+06	1.99203e+08	
69825	-1.43887	0.0125208	-0.880003	0.171916	-0.845918	3.89359	-4.58318e+07	-9.23085e+06	1.99203e+08	
69854	-1.43887	0.0125208	-0.880003	0.179947	-0.885791	4.06689	-4.58318e+07	-9.23085e+06	1.99203e+08	
69884	-1.43887	0.0125208	-0.880003	0.188255	-0.92704	4.24617	-4.58318e+07	-9.23085e+06	1.99203e+08	
69915	-1.43887	0.0125208	-0.880003	0.19684	-0.969664	4.43143	-4.58318e+07	-9.23085e+06	1.99203e+08	
69945	-1.43887	0.0125208	-0.880003	0.205147	-1.01091	4.61072	-4.58318e+07	-9.23085e+06	1.99203e+08	
69975	-1.43887	0.0125208	-0.880003	0.213455	-1.05216	4.79	-4.58318e+07	-9.23085e+06	1.99203e+08	
70005	-1.43887	0.0125208	-0.880003	0.221763	-1.09341	4.96928	-4.58318e+07	-9.23085e+06	1.99203e+08	
70035	-1.43887	0.0125208	-0.880003	0.230071	-1.13466	5.14856	-4.58318e+07	-9.23085e+06	1.99203e+08	
72615	-1.46056	0.0139153	-0.774105	114.763	-250.684	1144.2	-4.96903e+07	-2.25496e+07	2.25611e+08	
73034	-1.6563	0.0147557	-0.153532	0.00595516	-0.00236446	3.04099e-10	-0.212479	0.745009	0.389871	
73065	-1.6563	0.0147557	-0.153532	0.00595516	-0.00236446	6.66679e-10	-0.212479	0.745009	0.389871	
73094	-1.6563	0.0147557	-0.153532	0.00595516	-0.00236446	1.00587e-09	-0.212479	0.745009	0.389871	
73125	-1.6563	0.0147557	-0.153532	0.00595516	-0.00236446	1.36845e-09	-0.212479	0.745009	0.389871	
73155	-1.6563	0.0147557	-0.153532	0.00595515	-0.00236446	1.71933e-09	-0.212479	0.745009	0.389871	
73184	-1.6563	0.0147557	-0.153532	0.00595515	-0.00236446	2.05852e-09	-0.212479	0.745009	0.389871	
73215	-1.6563	0.0147557	-0.153532	0.00595515	-0.00236446	2.4211e-09	-0.212479	0.745009	0.389871	
73244	-1.6563	0.0147557	-0.153532	0.00595515	-0.00236446	2.76028e-09	-0.212479	0.745009	0.389871	
73274	-1.6563	0.0147557	-0.153532	0.00595515	-0.00236447	3.11117e-09	-0.212479	0.745009	0.389871	
73305	-1.6563	0.0147557	-0.153532	0.00595515	-0.00236447	3.47375e-09	-0.212479	0.745009	0.389871	
73335	-1.6563	0.0147557	-0.153532	0.00595515	-0.00236447	3.82463e-09	-0.212479	0.745009	0.389871	
73365	-1.6563	0.0147557	-0.153532	0.00595515	-0.00236447	4.17552e-09	-0.212479	0.745009	0.389871	
73394	-1.6563	0.0147557	-0.153532	0.00595515	-0.00236447	4.5147e-09	-0.212479	0.745009	0.389871	
73425	-1.6563	0.0147557	-0.153532	0.00595515	-0.00236447	4.87728e-09	-0.212479	0.745009	0.389871	
73454	-1.6563	0.0147557	-0.153532	0.00595515	-0.00236447	5.21647e-09	-0.212479	0.745009	0.389871	
73485	-1.6563	0.0147557	-0.153532	0.00595515	-0.00236447	5.57905e-09	-0.212479	0.745009	0.389871	
73514	-1.6563	0.0147557	-0.153532	0.00595515	-0.00236447	5.91824e-09	-0.212479	0.745009	0.389871	
73545	-1.6563	0.0147557	-0.153532	0.00595515	-0.00236447	6.28082e-09	-0.212479	0.745009	0.389871	
73575	-1.6563	0.0147557	-0.153532	0.00595515	-0.00236447	6.6317e-09	-0.212479	0.745009	0.389871	
73605	-1.6563	0.0147557	-0.153532	0.00595514	-0.00236447	6.98258e-09	-0.212479	0.745009	0.389871	
73635	-1.6563	0.0147557	-0.153532	0.00595514	-0.00236447	7.33347e-09	-0.212479	0.745009	0.389871	
73665	-1.6563	0.0147557	-0.153532	0.00595514	-0.00236447	7.68435e-09	-0.212479	0.745009	0.389871	
73695	-1.6563	0.0147557	-0.153532	0.00595514	-0.00236447	8.03524e-09	-0.212479	0.745009	0.389871	
73725	-1.6563	0.0147557	-0.153532	0.00595514	-0.00236447	8.38612e-09	-0.212479	0.745009	0.389871	
73755	-1.6563	0.0147557	-0.153532	0.00595514	-0.00236447	8.737e-09	-0.212479	0.745009	0.389871	
73784	-1.6563	0.0147557	-0.153532	0.00595514	-0.00236447	9.07619e-09	-0.212479	0.745009	0.389871	
73815	-1.6563	0.0147557	-0.153532	0.00595514	-0.00236447	9.43877e-09	-0.212479	0.745009	0.389871	
73844	-1.6563	0.0147557	-0.153532	0.00595514	-0.00236447	9.77796e-09	-0.212479	0.745009	0.389871	
73875	-1.6563	0.0147557	-0.153532	0.00595514	-0.00236447	1.01405e-08	-0.212479	0.745009	0.389871	
73904	-1.6563	0.0147557	-0.153532	0.00595514	-0.00236447	1.04797e-08	-0.212479	0.745009	0.389871	
73935	-1.6563	0.0147557	-0.153532	0.00595514	-0.00236447	1.08423e-08	-0.212479	0.745009	0.389871	
73964	-1.6563	0.0147557	-0.153532	0.00595514	-0.00236447	1.11815e-08	-0.212479	0.745009	0.389871	
73995	-1.6563	0.0147557	-0.153532	0.00595514	-0.00236447	1.15441e-08	-0.212479	0.745009	0.389871	
74025	-1.6563	0.0147557	-0.153532	0.00595513	-0.00236447	1.1895e-08	-0.212479	0.745009	0.389871	
74055	-1.6563	0.0147557	-0.153532	0.00595513	-0.00236447	1.22458e-08	-0.212479	0.745009	0.389871	
74085	-1.6563	0.0147557	-0.153532	0.00595513	-0.00236447	1.25967e-08	-0.212479	0.745009	0.389871	
74115	-1.6563	0.0147557	-0.153532	0.00595513	-0.00236447	1.29476e-08	-0.212479	0.745009	0.389871	
74145	-1.6563	0.0147557	-0.153532	0.00595513	-0.00236447	1.32985e-08	-0.212479	0.745009	0.389871	
74175	-1.6563	0.0147557	-0.153532	0.00595513	-0.00236447	1.36377e-08	-0.212479	0.745009	0.389871	
74204	-1.6563	0.0147557	-0.153532	0.00595513	-0.00236447	1.39886e-08	-0.212479	0.745009	0.389871	
74234	-1.6563	0.0147557	-0.153532	0.00595513	-0.00236447	1.43394e-08	-0.212479	0.745009	0.389871	
74265	-1.6563	0.0147557	-0.153532	0.00595513	-0.00236447	1.4702e-08	-0.212479	0.745009	0.389871	
74295	-1.6563	0.0147557	-0.153532	0.00595513	-0.00236447	1.50529e-08	-0.212479	0.745009	0.389871	
74325	-1.6563	0.0147557	-0.153532	0.00595513	-0.00236447	1.54038e-08	-0.212479	0.745009	0.389871	
74355	-1.6563	0.0147557	-0.153532	0.00595513	-0.00236447	1.57547e-08	-0.212479	0.745009	0.389871	
74385	-1.6563	0.0147557	-0.153532	0.00595513	-0.00236447	1.61056e-08	-0.212479	0.745009	0.389871	
74415	-1.6563	0.0147557	-0.153532	0.00595513	-0.00236447	1.64564e-08	-0.212479	0.745009	0.389871	
74445	-1.6563	0.0147557	-0.153532	0.00595513	-0.00236447	1.68073e-08	-0.212479	0.745009	0.389871	
74475	-1.6563	0.0147557	-0.153532	0.00595512	-0.00236447	1.71582e-08	-0.212479	0.745009	0.389871	
74505	-1.6563	0.0147557	-0.153532	0.00595512	-0.00236447	1.75091e-08	-0.212479	0.745009	0.389871	
74535	-1.6563	0.0147557	-0.153532	0.00595512	-0.00236447	1.786e-08	-0.212479	0.745009	0.389871	
74565	-1.6563	0.0147557	-0.153532	0.00595512	-0.00236447	1.82109e-08	-0.212479	0.745009	0.389871	
74595	-1.6563	0.0147557	-0.153532	0.00595512	-0.00236447	1.85617e-08	-0.212479	0.745009	0.389871	
74625	-1.6563	0.0147557	-0.153532	0.00595512	-0.00236447	1.89126e-08	-0.212479	0.745009	0.389871	
74655	-1.6563	0.0147557	-0.153532	0.00595512	-0.00236447	1.92635e-08	-0.212479	0.745009	0.389871	
74685	-1.6563	0.0147557	-0.153532	0.00595512	-0.00236447	1.96144e-08	-0.212479	0.745009	0.389871	
74715	-1.6563	0.0147557	-0.153532	0.00595512	-0.00236447	1.99653e-08	-0.212479	0.745009	0.389871	
74745	-1.6563	0.0147557	-0.153532	0.00595512	-0.00236447	2.03162e-08	-0.212479	0.745009	0.389871	
74775	-1.6563	0.0147557	-0.153532	0.00595512	-0.00236447	2.0667e-08	-0.212479	0.745009	0.389871	
74805	-1.6563	0.0147557	-0.153532	0.00595512	-0.00236447	2.10179e-08	-0.212479	0.745009	0.389871	
74835	-1.6563	0.0147557	-0.153532	0.00595512	-0.00236448	2.13688e-08	-0.212479	0.745009	0.389871	
74865	-1.6563	0.0147557	-0.153532	0.00595512	-0.00236448	2.17197e-08	-0.212479	0.745009	0.389871	
74895	-1.6563	0.0147557	-0.153532	0.00595512	-0.00236448	2.20706e-08	-0.212479	0.745009	0.389871	
74925	-1.6563	0.0147557	-0.153532	0.00595511	-0.00236448	2.24215e-08	-0.212479	0.745009	0.389871	
74955	-1.6563	0.0147557	-0.153532	0.00595511	-0.00236448	2.27723e-08	-0.212479	0.745009	0.389871	
74985	-1.6563	0.0147557	-0.153532	0.00595511	-0.00236448	2.31232e-08	-0.212479	0.745009	0.389871	
75015	-1.6563	0.0147557	-0.153532	0.00595511	-0.00236448	2.34741e-08	-0.212479	0.745009	0.389871	
75045	-1.6563	0.0147557	-0.153532	0.00595511	-0.00236448	2.3825e-08	-0.212479	0.745009	0.389871	
75075	-1.6563	0.0147557	-0.153532	0.00595511	-0.00236448	2.41759e-08	-0.212479	0.745009	0.389871	
75105	-1.6563	0.0147557	-0.153532	0.00595511	-0.00236448	2.45268e-08	-0.212479	0.745009	0.389871	
75135	-1.6563	0.0147557	-0.153532	0.00595511	-0.00236448	2.4866e-08	-0.212479	0.745009	0.389871	
75164	-1.6563	0.0147557	-0.153532	0.00595511	-0.00236448	2.52168e-08	-0.212479	0.745009	0.389871	
75194	-1.6563	0.0147557	-0.153532	0.00595511	-0.00236448	2.55677e-08	-0.212479	0.745009	0.389871	
75225	-1.6563	0.0147557	-0.153532	0.00595511	-0.00236448	2.59303e-08	-0.212479	0.745009	0.389871	
75255	-1.6563	0.0147557	-0.153532	0.00595511	-0.00236448	2.62812e-08	-0.212479	0.745009	0.389871	
75285	-1.6563	0.0147557	-0.153532	0.00595511	-0.00236448	2.66321e-08	-0.212479	0.745009	0.389871	
75315	-1.6563	0.0147557	-0.153532	0.00595511	-0.00236448	2.6983e-08	-0.212479	0.745009	0.389871	
75345	-1.6563	0.0147557	-0.153532	0.00595511	-0.00236448	2.73338e-08	-0.212479	0.745009	0.389871	
75375	-1.6563	0.0147557	-0.153532	0.0059551	-0.00236448	2.76847e-08	-0.212479	0.745009	0.389871	
75404	-1.6563	0.0147557	-0.153532	0.0059551	-0.00236448	2.80239e-08	-0.212479	0.745009	0.389871	
75435	-1.6563	0.0147557	-0.153532	0.0059551	-0.00236448	2.83865e-08	-0.212479	0.745009	0.389871	
75465	-1.6563	0.0147557	-0.153532	0.0059551	-0.00236448	2.87374e-08	-0.212479	0.745009	0.389871	
75495	-1.6563	0.0147557	-0.153532	0.0059551	-0.00236448	2.90883e-08	-0.212479	0.745009	0.389871	
75525	-1.6563	0.0147557	-0.153532	0.0059551	-0.00236448	2.94391e-08	-0.212479	0.745009	0.389871	
75555	-1.6563	0.0147557	-0.153532	0.0059551	-0.00236448	2.979e-08	-0.212479	0.745009	0.389871	
75585	-1.6563	0.0147557	-0.153532	0.0059551	-0.00236448	3.01409e-08	-0.212479	0.745009	0.389871	
75615	-1.6563	0.0147557	-0.153532	0.0059551	-0.00236448	3.04918e-08	-0.212479	0.745009	0.389871	
75645	-1.6563	0.0147557	-0.153532	0.0059551	-0.00236448	3.08427e-08	-0.212479	0.745009	0.389871	
75675	-1.6563	0.0147557	-0.153532	0.0059551	-0.00236448	3.11936e-08	-0.212479	0.745009	0.389871	
75705	-1.6563	0.0147557	-0.153532	0.0059551	-0.00236448	3.15444e-08	-0.212479	0.745009	0.389871	
75735	-1.6563	0.0147557	-0.153532	0.0059551	-0.00236448	3.18953e-08	-0.212479	0.745009	0.389871	
75765	-1.6563	0.0147557	-0.153532	0.0059551	-0.00236448	3.22462e-08	-0.212479	0.745009	0.389871	
75795	-1.6563	0.0147557	-0.153532	0.0059551	-0.00236448	3.25971e-08	-0.212479	0.745009	0.389871	
75825	-1.6563	0.0147557	-0.153532	0.00595509	-0.00236448	3.2948e-08	-0.212479	0.745009	0.389871	
75855	-1.6563	0.0147557	-0.153532	0.00595509	-0.00236448	3.32989e-08	-0.212479	0.745009	0.389871	
75885	-1.6563	0.0147557	-0.153532	0.00595509	-0.00236448	3.36497e-08	-0.212479	0.745009	0.389871	
75915	-1.6563	0.0147557	-0.153532	0.00595509	-0.00236448	3.40006e-08	-0.212479	0.745009	0.389871	
75944	-1.6563	0.0147557	-0.153532	0.00595509	-0.00236448	3.43398e-08	-0.212479	0.745009	0.389871	
75975	-1.6563	0.0147557	-0.153532	0.00595509	-0.00236448	3.46907e-08	-0.212479	0.745009	0.389871	
76004	-1.6563	0.0147557	-0.153532	0.00595509	-0.00236448	3.50416e-08	-0.212479	0.745009	0.389871	
76034	-1.6563	0.0147557	-0.153532	0.00595509	-0.00236448	3.53925e-08	-0.212479	0.745009	0.389871	
76065	-1.6563	0.0147557	-0.153532	0.00595509	-0.00236448	3.5755e-08	-0.212479	0.745009	0.389871	
76095	-1.6563	0.0147557	-0.153532	0.00595509	-0.00236448	3.61059e-08	-0.212479	0.745009	0.389871	
76125	-1.6563	0.0147557	-0.153532	0.00595509	-0.00236448	3.64568e-08	-0.212479	0.745009	0.389871	
76154	-1.6563	0.0147557	-0.153532	0.00595509	-0.00236448	3.6796e-08	-0.212479	0.745009	0.389871	
76185	-1.6563	0.0147557	-0.153532	0.00595509	-0.00236448	3.71586e-08	-0.212479	0.745009	0.389871	
76215	-1.6563	0.0147557	-0.153532	0.00595509	-0.00236448	3.75095e-08	-0.212479	0.745009	0.389871	
76245	-1.6563	0.0147557	-0.153532	0.00595509	-0.00236448	3.78603e-08	-0.212479	0.745009	0.389871	
76275	-1.6563	0.0147557	-0.153532	0.00595508	-0.00236448	3.82112e-08	-0.212479	0.745009	0.389871	
76304	-1.6563	0.0147557	-0.153532	0.00595508	-0.00236448	3.85504e-08	-0.212479	0.745009	0.389871	
76334	-1.6563	0.0147557	-0.153532	0.00595508	-0.00236448	3.89013e-08	-0.212479	0.745009	0.389871	
76365	-1.6563	0.0147557	-0.153532	0.00595508	-0.00236448	3.92639e-08	-0.212479	0.745009	0.389871	
76395	-1.6563	0.0147557	-0.153532	0.00595508	-0.00236448	3.96031e-08	-0.212479	0.745009	0.389871	
76424	-1.6563	0.0147557	-0.153532	0.00595508	-0.00236449	3.99539e-08	-0.212479	0.745009	0.389871	
76455	-1.6563	0.0147557	-0.153532	0.00595508	-0.00236449	4.03048e-08	-0.212479	0.745009	0.389871	
76484	-1.6563	0.0147557	-0.153532	0.00595508	-0.00236449	4.06557e-08	-0.212479	0.745009	0.389871	
76514	-1.6563	0.0147557	-0.153532	0.00595508	-0.00236449	4.10066e-08	-0.212479	0.745009	0.389871	
76544	-1.6563	0.0147557	-0.153532	0.00595508	-0.00236449	4.13575e-08	-0.212479	0.745009	0.389871	
76574	-1.6563	0.0147557	-0.153532	0.00595508	-0.00236449	4.17084e-08	-0.212479	0.745009	0.389871	
76604	-1.6563	0.0147557	-0.153532	0.00595508	-0.00236449	4.20593e-08	-0.212479	0.745009	0.389871	
76634	-1.6563	0.0147557	-0.153532	0.00595508	-0.00236449	4.24101e-08	-0.212479	0.745009	0.389871	
76665	-1.6563	0.0147557	-0.153532	0.00595508	-0.00236449	4.27727e-08	-0.212479	0.745009	0.389871	
76695	-1.6563	0.0147557	-0.153532	0.00595508	-0.00236449	4.31236e-08	-0.212479	0.745009	0.389871	
76725	-1.6563	0.0147557	-0.153532	0.00595507	-0.00236449	4.34745e-08	-0.212479	0.745009	0.389871	
76755	-1.6563	0.0147557	-0.153532	0.00595507	-0.00236449	4.38254e-08	-0.212479	0.745009	0.389871	
76785	-1.6563	0.0147557	-0.153532	0.00595507	-0.00236449	4.41763e-08	-0.212479	0.745009	0.389871	
76815	-1.6563	0.0147557	-0.153532	0.00595507	-0.00236449	4.45271e-08	-0.212479	0.745009	0.389871	
76845	-1.6563	0.0147557	-0.153532	0.00595507	-0.00236449	4.4878e-08	-0.212479	0.745009	0.389871	
76875	-1.6563	0.0147557	-0.153532	0.00595507	-0.00236449	4.52289e-08	-0.212479	0.745009	0.389871	
76905	-1.6563	0.0147557	-0.153532	0.00595507	-0.00236449	4.55798e-08	-0.212479	0.745009	0.389871	
76935	-1.6563	0.0147557	-0.153532	0.00595507	-0.00236449	4.59307e-08	-0.212479	0.745009	0.389871	
76965	-1.6563	0.0147557	-0.153532	0.00595507	-0.00236449	4.62816e-08	-0.212479	0.745009	0.389871	
76995	-1.6563	0.0147557	-0.153532	0.00595507	-0.00236449	4.66324e-08	-0.212479	0.745009	0.389871	
78255	-1.63568	-0.0536374	0.947874	3.06909e-05	-1.21743e-05	7.26815e-11	-0.288492	0.757365	0.269191	
78285	-1.63568	-0.0536374	0.947874	2.96327e-05	-1.17543e-05	3.72312e-11	-0.278378	0.675	0.31026	
78315	-1.63568	-0.0536374	0.947874	2.87544e-05	-1.14059e-05	2.33365e-11	-0.276929	0.675741	0.259294	
78764	-1.66167	-0.0551783	0.918641	1.84058e-05	-7.30058e-06	1.08572e-10	-0.277597	0.726953	0.402119	
79274	-1.66484	-0.0508463	0.824928	1.10376e-05	-4.37866e-06	7.50442e-11	-0.278764	0.74878	0.312684	
79305	-1.66484	-0.0508463	0.824928	1.06571e-05	-4.22758e-06	1.8826e-11	-0.276224	0.667187	0.313767	
79425	-1.66575	-0.0609347	0.881267	9.44904e-06	-3.74832e-06	2.80049e-11	-0.27013	0.729385	0.311166	
79454	-1.66575	-0.0609347	0.881267	9.21505e-06	-3.65556e-06	7.5196e-11	-0.274053	0.731159	0.313317	
79545	-1.66343	-0.0537549	0.880038	8.41997e-06	-3.34015e-06	6.82333e-11	-0.269245	0.764364	0.379074	
79604	-1.66569	-0.0538093	0.882395	8.00812e-06	-3.17695e-06	1.89003e-10	-0.27731	0.759106	0.393756	
79844	-1.66432	-0.0402998	0.882775	6.20193e-06	-2.46037e-06	1.17221e-11	-0.266938	0.675169	0.390738	
80264	-1.6705	-0.0347398	0.762042	4.09103e-06	-1.6231e-06	4.65851e-11	-0.2786	0.757092	0.388209	
81435	-1.66276	-0.0317508	0.830472	1.26585e-06	-5.02244e-07	3.89723e-11	-0.218091	0.765206	0.32477	
