MS	x	y	z	vx	vy	vz	ax	ay	az	
5114	0.00573685	-0.103274	0.0064805	0	0	0	-897.331	980.588	640.383	
5145	0.00575695	-0.103244	0.00641913	-1.88439e-07	2.05923e-07	1.3448e-07	-780.944	-49.4179	-474.188	
5175	0.00576573	-0.103383	0.00644387	-5.86721e-07	1.8072e-07	-1.07355e-07	233.562	-3693.13	658.16	
5205	0.00577306	-0.103376	0.00648203	-5.02639e-07	-1.14881e-06	1.29582e-07	197.751	168.272	1029.05	
5234	0.00578005	-0.103289	0.00647632	-3.83988e-07	-1.04784e-06	7.47012e-07	190.017	2385.53	-155.283	
5265	0.00566806	-0.103386	0.00645068	-2.8708e-07	1.68777e-07	6.67817e-07	-3084.45	-2686.84	-706.017	
5294	0.00566806	-0.103386	0.00645068	-4.54362e-06	-3.53906e-06	-3.06486e-07	-3084.45	-2686.84	-706.017	
5355	0.00572584	-0.103207	0.00642104	5.86847e-10	4.28698e-10	3.76359e-10	1606.71	-698.766	982.533	
5384	0.00568219	-0.103319	0.0064218	2.89795e-07	-1.25349e-07	1.77232e-07	-1262.52	-3252.86	21.9533	
5445	0.00571363	-0.10325	0.00642899	1.72148e-10	1.67263e-10	1.10097e-10	-1700.46	-1182.68	422.614	
5474	0.00572175	-0.103213	0.00641049	-9.18077e-07	-6.38479e-07	2.28321e-07	241.749	1121.14	-550.607	
5505	0.00568789	-0.103246	0.00643727	-7.8028e-07	5.70941e-10	-8.55246e-08	-1019	-1009.89	805.876	
5534	0.00568789	-0.103246	0.00643727	-2.24765e-06	-1.45368e-06	1.07494e-06	-1019	-1009.89	805.876	
5565	0.00561827	-0.103306	0.00652598	-2.4005e-06	-1.60516e-06	1.19582e-06	-2152.38	-1847.2	2742.39	
5625	0.00561057	-0.103244	0.00647181	6.91322e-10	7.40535e-10	6.03747e-10	-239.56	1930.98	-1686.71	
5655	0.00554383	-0.103347	0.00647015	-2.07726e-07	1.68069e-06	-1.46683e-06	-2112.59	-3269.12	-52.3421	
5684	0.00558975	-0.103317	0.00648804	-1.22177e-06	1.11514e-07	-1.49196e-06	1475.12	982.868	574.667	
5745	0.00566519	-0.10328	0.00650116	5.43574e-10	2.73799e-10	3.76824e-10	-1004.74	-863.573	-221.88	
5804	0.00562351	-0.103317	0.00652874	1.73704e-10	2.13124e-10	1.64909e-10	-1578.02	-134.08	223.447	
5835	0.0056067	-0.103342	0.00650374	-9.93979e-07	-8.42574e-08	1.40937e-07	-567.998	-833.62	-845.111	
5865	0.00567936	-0.103237	0.00642744	-1.19846e-06	-3.84361e-07	-1.63303e-07	2488.98	3568.56	-2613.77	
5895	0.00563476	-0.103326	0.00649925	3.69599e-07	1.86383e-06	-1.80998e-06	-1538.79	-3065.93	2477.49	
5924	0.00566871	-0.103395	0.00653724	-1.38201e-07	8.52077e-07	-9.92405e-07	1186.78	-2390.4	1328.38	
5955	0.00564525	-0.103383	0.00649413	6.09468e-07	-6.53877e-07	-1.55525e-07	-825.795	391.561	-1518.02	
5984	0.00569943	-0.103359	0.00646686	3.96688e-08	-3.837e-07	-1.20296e-06	1925.07	867.703	-969.113	
6014	0.00569943	-0.103359	0.00646686	3.10053e-06	9.95948e-07	-2.74385e-06	1925.07	867.703	-969.113	
6045	0.00569943	-0.103359	0.00646686	7.95171e-06	3.18256e-06	-5.18601e-06	1925.07	867.703	-969.113	
6075	0.0056549	-0.103346	0.00649131	9.10675e-06	3.70318e-06	-5.76748e-06	-1632.56	495.787	896.629	
6105	0.00568535	-0.10343	0.00652236	8.81289e-06	3.79242e-06	-5.60608e-06	1424.57	59.9327	1034.73	
6134	0.00579019	-0.103369	0.00649599	9.45395e-06	3.81939e-06	-5.14046e-06	3925.4	2295.19	-987.038	
6165	0.0056393	-0.103538	0.00647926	9.68947e-06	3.9571e-06	-5.19968e-06	-3371.23	-5403.03	763.792	
6194	0.00562557	-0.103465	0.00646261	9.28492e-06	3.30874e-06	-5.10803e-06	-526.126	2801.6	-637.707	
6225	0.00562557	-0.103465	0.00646261	8.73249e-06	6.25042e-06	-5.77762e-06	-526.126	2801.6	-637.707	
6254	0.00561736	-0.103374	0.00649288	8.5273e-06	7.34305e-06	-6.02632e-06	-319.629	3534.28	1178.78	
6285	0.0056411	-0.103329	0.00646974	8.40265e-06	8.72142e-06	-5.5666e-06	933.723	1778.33	-910.299	
6314	0.0056453	-0.103342	0.00647266	8.90686e-06	9.68171e-06	-6.05816e-06	166.497	-543.422	115.62	
6345	0.00574378	-0.103395	0.00647838	9.00176e-06	9.37196e-06	-5.99226e-06	3941.06	-2090.84	228.931	
6404	0.00565594	-0.103303	0.00644943	1.75697e-10	1.58328e-10	1.22193e-10	-2125.28	3210.14	-1428.24	
6464	0.00569075	-0.103284	0.0064724	5.21865e-10	3.82662e-10	3.38987e-10	1441.52	787.504	950.997	
6495	0.00572371	-0.103328	0.00645354	1.12491e-06	6.14636e-07	7.42117e-07	1379.39	-1840.35	-789.32	
6525	0.00572371	-0.103328	0.00645354	3.44228e-06	-2.47715e-06	-5.83941e-07	1379.39	-1840.35	-789.32	
6555	0.00578251	-0.103277	0.00645939	4.10438e-06	-3.36052e-06	-9.62814e-07	2514.31	2184.24	250.057	
6585	0.00573821	-0.103347	0.00648788	6.06555e-06	-1.65682e-06	-7.6777e-07	-1905.99	-3029.39	1225.84	
6614	0.00570719	-0.103379	0.00648647	5.26503e-06	-2.92916e-06	-2.52916e-07	-1351.23	-1378.11	-61.664	
6645	0.00573063	-0.10335	0.00651128	4.9002e-06	-3.30125e-06	-2.69565e-07	1032.43	1265.64	1092.8	
6674	0.00572602	-0.103446	0.00651365	5.45771e-06	-2.6178e-06	3.20544e-07	-204.494	-4221.7	104.98	
6705	0.00570476	-0.103327	0.00645946	5.40863e-06	-3.63101e-06	3.4574e-07	-953.288	5296.81	-2430.26	
6734	0.00576197	-0.103363	0.00648739	4.92246e-06	-9.2964e-07	-8.93694e-07	2581.21	-1609.35	1259.95	
6765	0.0057091	-0.103419	0.00648448	6.70349e-06	-2.04009e-06	-2.43253e-08	-2403.18	-2563.25	-132.396	
6794	0.00570917	-0.103431	0.00649961	6.12672e-06	-2.65527e-06	-5.61003e-08	3.32376	-531.373	696.703	
6854	0.0056672	-0.103433	0.00650002	5.708e-10	4.30299e-10	3.66637e-10	-1953.38	-70.2164	19.3149	
6885	0.00562482	-0.103364	0.00646979	-5.80306e-08	-1.67619e-09	9.46084e-10	803.53	680.56	1488.75	
6914	0.00566615	-0.103374	0.00645407	-9.81881e-09	3.91574e-08	9.02712e-08	1974.34	-460.074	-750.986	
6945	0.00566615	-0.103374	0.00645407	1.94478e-06	-4.16316e-07	-6.53205e-07	1974.34	-460.074	-750.986	
6974	0.0056731	-0.103397	0.00651625	3.66245e-06	-8.16581e-07	-1.30656e-06	335.163	-1141.88	2999.06	
7005	0.0056731	-0.103397	0.00651625	4.26574e-06	-2.87196e-06	4.09175e-06	335.163	-1141.88	2999.06	
7034	0.00567862	-0.10337	0.00647343	4.29591e-06	-2.97473e-06	4.36166e-06	712.41	4209.89	-1434.4	
7065	0.00576974	-0.103293	0.00650226	4.57375e-06	-1.33288e-06	3.80225e-06	4531.55	3833.52	1433.66	
7094	0.00571574	-0.103288	0.0064924	5.66132e-06	-4.12832e-07	4.14633e-06	-2711.73	242.232	-495.22	
7125	0.00572442	-0.103307	0.0065072	4.27834e-06	-2.89293e-07	3.89376e-06	438.953	-963.192	747.891	
7155	0.0057349	-0.103339	0.00647298	4.55488e-06	-8.96104e-07	4.36493e-06	532.998	-1651.84	-1741.52	
7184	0.0057349	-0.103339	0.00647298	5.35438e-06	-3.37387e-06	1.75266e-06	532.998	-1651.84	-1741.52	
7244	0.0057357	-0.103332	0.00651305	4.80743e-10	3.75409e-10	3.49472e-10	-2538.68	-163.821	3086.88	
7275	0.00578824	-0.103382	0.00650648	-2.20817e-06	-1.42149e-07	2.68593e-06	2758.19	-2620.97	-345.133	
7304	0.00568958	-0.103327	0.00645306	-5.53255e-07	-1.71473e-06	2.47885e-06	-5234.24	2922.77	-2834.35	
7335	0.00568309	-0.103294	0.00652005	-7.10283e-07	-1.62705e-06	2.39382e-06	-1263.99	1871.5	-544.016	
7364	0.00568309	-0.103294	0.00652005	-1.84787e-06	5.73002e-08	1.90421e-06	-1263.99	1871.5	-544.016	
7395	0.00571662	-0.103342	0.00653356	-2.26499e-06	6.74894e-07	1.72468e-06	1828.1	-2602.93	736.77	
7424	0.00568664	-0.103338	0.00650939	-1.22297e-06	-8.08775e-07	2.14464e-06	-1643.88	218.061	-1325.38	
7455	0.00572415	-0.103301	0.00653933	-1.96271e-06	-7.10648e-07	1.54822e-06	2075.94	2050.74	1657.17	
7484	0.00572415	-0.103301	0.00653933	7.77523e-07	1.99633e-06	3.73569e-06	2075.94	2050.74	1657.17	
7515	0.00566574	-0.103361	0.00649186	1.33803e-06	2.55003e-06	4.18313e-06	-3290.38	-3377.02	-2674.2	
7544	0.00570537	-0.103295	0.00642753	-2.41354e-07	9.29062e-07	2.89951e-06	2245.61	3750.46	-3645.53	
7635	0.0057693	-0.103354	0.00644865	3.20388e-11	1.56091e-10	1.17206e-10	-2101.19	1462.12	192.459	
7664	0.00574667	-0.10337	0.00645093	-1.89075e-07	1.31747e-07	1.74385e-08	-1328.45	-972.951	134.157	
7694	0.00569213	-0.103263	0.00638689	-4.28195e-07	-4.33844e-08	4.15867e-08	-3223.64	6324.8	-3785.28	
7725	0.00572651	-0.103256	0.00641664	-1.20187e-06	1.47457e-06	-8.66881e-07	2047.46	429.832	1771.6	
7754	0.00572651	-0.103256	0.00641664	1.07081e-06	1.95168e-06	1.0996e-06	2047.46	429.832	1771.6	
7785	0.00571626	-0.103241	0.00643684	2.23786e-06	2.19669e-06	2.10941e-06	-618.348	913.866	1218.51	
7814	0.00575132	-0.103417	0.00648744	1.94105e-06	2.63534e-06	2.69429e-06	2132.15	-10695.6	3076.64	
7845	0.005718	-0.103437	0.00649451	2.45277e-06	6.83891e-08	3.43269e-06	-2046.28	-1225.81	434.474	
7874	0.00573014	-0.103388	0.00648601	1.83888e-06	-2.99353e-07	3.56303e-06	750.755	3022.03	-525.413	
7905	0.00575578	-0.103313	0.00643284	2.1542e-06	9.69898e-07	3.34236e-06	1596.22	4700.79	-3311.39	
7935	0.00573454	-0.103347	0.00647203	2.8725e-06	3.08525e-06	1.85223e-06	-1331.97	-2140.5	2458.14	
7964	0.00573454	-0.103347	0.00647203	1.07434e-06	1.95581e-07	5.17072e-06	-1331.97	-2140.5	2458.14	
8024	0.00577412	-0.103259	0.00649404	1.33723e-10	1.49009e-10	1.01342e-10	2428.88	1845.11	-2106.15	
8055	0.0057576	-0.103289	0.00654605	1.31173e-06	9.96507e-07	-1.13722e-06	-1066.96	-1979.17	3358.92	
8115	0.00570026	-0.103272	0.00644349	5.79814e-10	4.62877e-10	3.11458e-10	-1136.71	1550.47	-2488.01	
8144	0.00564431	-0.103325	0.00647593	-7.49646e-07	1.02377e-06	-1.64177e-06	-3690.64	-3512.32	2139.72	
8175	0.00568662	-0.10325	0.00648214	-2.52115e-06	-6.62142e-07	-6.1471e-07	2816.62	4988.32	413.329	
8205	0.00570516	-0.103252	0.00648549	-9.15679e-07	2.1812e-06	-3.79112e-07	1242.16	-104.846	224.476	
8235	0.00573318	-0.10327	0.00639378	-3.56706e-07	2.13402e-06	-2.78099e-07	1893.5	-1266.74	-6196.71	
8295	0.00569582	-0.103329	0.00643897	1.45238e-10	1.94991e-10	1.41792e-10	2920.99	-4134.81	1210.18	
8324	0.00570667	-0.103344	0.00644952	1.57748e-06	-2.2326e-06	6.53639e-07	748.612	-1004.9	727.85	
8355	0.00570667	-0.103344	0.00644952	2.67794e-06	-3.7098e-06	1.72358e-06	748.612	-1004.9	727.85	
8384	0.0057507	-0.103364	0.00646382	3.12711e-06	-4.31273e-06	2.16029e-06	3080.06	-1439.86	1000.25	
8415	0.00575292	-0.103407	0.00645835	5.89916e-06	-5.60861e-06	3.06051e-06	155.842	-3003.55	-384.284	
8444	0.00575292	-0.103407	0.00645835	6.175e-06	-1.09249e-05	2.38033e-06	155.842	-3003.55	-384.284	
8475	0.00562769	-0.103431	0.00645914	6.24046e-06	-1.21864e-05	2.21893e-06	-8964.88	-1704.8	56.8379	
8504	0.00570923	-0.103417	0.00647252	3.0131e-06	-1.28001e-05	2.23939e-06	5880.32	979.214	964.774	
8535	0.00570098	-0.103502	0.00651129	6.7177e-06	-1.21832e-05	2.8472e-06	-597.8	-6135.3	2810.39	
8564	0.00574364	-0.103407	0.00646958	6.59216e-06	-1.34716e-05	3.43738e-06	1430.36	2686.14	-653.422	
8595	0.00574488	-0.103394	0.00646244	7.19291e-06	-1.23434e-05	3.16295e-06	91.6355	953.215	-525.554	
8624	0.00572677	-0.10342	0.00648308	7.2314e-06	-1.19431e-05	2.94221e-06	-1342.93	-1922.79	1530.12	
8655	0.00569674	-0.103411	0.00644073	6.62708e-06	-1.28083e-05	3.63077e-06	-2241.76	661.858	-3161.9	
8685	0.00570947	-0.103397	0.00648002	6.22356e-06	-1.26892e-05	3.06162e-06	958.977	1038.95	2959.45	
8774	0.00578082	-0.103395	0.00650814	4.36902e-10	4.95073e-10	2.89443e-10	3850.85	-2247.99	717.006	
8805	0.00578048	-0.103407	0.00653101	2.0799e-06	-1.21342e-06	3.87473e-07	-25.8871	-879.443	1765.85	
8834	0.00576473	-0.103406	0.00651869	2.06048e-06	-1.873e-06	1.71186e-06	-1222.43	63.5969	-956.483	
8895	0.0057489	-0.103427	0.00649651	5.6989e-10	4.06013e-10	3.28238e-10	2924.51	-8691.66	776.29	
8924	0.00578762	-0.103341	0.00647152	1.05339e-06	-3.12859e-06	2.79793e-07	3074.99	6841.4	-1984.92	
8955	0.00578762	-0.103341	0.00647152	5.02013e-06	5.69682e-06	-2.28075e-06	3074.99	6841.4	-1984.92	
8984	0.00578762	-0.103341	0.00647152	1.16621e-05	2.04743e-05	-6.56817e-06	3074.99	6841.4	-1984.92	
9015	0.0057434	-0.103386	0.00645418	1.23079e-05	2.19109e-05	-6.985e-06	1744.37	3068.95	-2999.94	
9044	0.00577268	-0.103389	0.00647822	1.28835e-05	2.29237e-05	-7.97498e-06	2388.79	-288.007	1962	
9075	0.00571001	-0.103363	0.00648302	1.43884e-05	2.27423e-05	-6.73892e-06	-5137.26	2114	392.986	
9104	0.0057884	-0.103311	0.00642614	1.00731e-05	2.4518e-05	-6.40881e-06	6457.04	4352.9	-4685.46	
9135	0.00572388	-0.103275	0.00646647	1.53033e-05	2.80439e-05	-1.0204e-05	-5351.98	2941.23	3345.68	
9165	0.00571211	-0.103389	0.00648366	1.06471e-05	3.06027e-05	-7.29329e-06	-981.978	-9518.56	1435.31	
9194	0.00571771	-0.103209	0.00642335	9.79279e-06	2.23216e-05	-6.04457e-06	469.567	15147.4	-5066.27	
9225	0.00567293	-0.103304	0.00643971	1.01872e-05	3.50454e-05	-1.03002e-05	-3786.85	-8009.13	1383.99	
9285	0.00566663	-0.103543	0.00654242	5.62963e-10	3.01426e-10	3.2594e-10	-2103.39	-19867.5	5655.07	
9345	0.00569634	-0.103528	0.00651589	1.74005e-10	1.69132e-10	1.17969e-10	3527.57	2459.36	-1165.12	
9374	0.00569628	-0.103548	0.00656342	6.35136e-07	4.42853e-07	-2.09604e-07	-5.10827	-1766.24	4170.85	
9404	0.00572332	-0.103538	0.00652247	6.34217e-07	1.24931e-07	5.41149e-07	2388.12	842.308	-3616.41	
9435	0.00572332	-0.103538	0.00652247	3.28503e-06	1.05989e-06	-3.47307e-06	2388.12	842.308	-3616.41	
9464	0.00562125	-0.103457	0.00653786	3.85817e-06	1.26205e-06	-4.34101e-06	-9126.64	7270.75	1376.22	
9495	0.00567266	-0.103438	0.00653043	-1.34401e-06	5.40637e-06	-3.55656e-06	4616.35	1688.44	-667.14	
9524	0.00571263	-0.103394	0.00651501	2.25675e-06	6.72336e-06	-4.07693e-06	3605.46	3996.66	-1391.47	
9555	0.00567175	-0.103377	0.00651952	4.85268e-06	9.60096e-06	-5.07879e-06	-3713.36	1523.67	410.158	
9584	0.00571418	-0.103353	0.00645734	1.73346e-06	1.08808e-05	-4.73426e-06	3874.47	2234.15	-5678.34	
9615	0.00561168	-0.103317	0.00650894	4.87178e-06	1.26905e-05	-9.33371e-06	-9422.5	3231.16	4743.35	
9644	0.00573024	-0.103292	0.00646646	-1.91242e-06	1.50169e-05	-5.9185e-06	10972	2340.02	-3931.01	
9675	0.00570419	-0.103282	0.00648637	7.30409e-06	1.69826e-05	-9.22055e-06	-2424.68	902.268	1853.13	
9705	0.00576754	-0.103324	0.00647928	6.64942e-06	1.72262e-05	-8.72021e-06	5956.43	-3865.59	-667.176	
9735	0.00571044	-0.103436	0.00651187	9.32982e-06	1.54867e-05	-9.02043e-06	-5395.1	-10628.3	3079.59	
9765	0.00570686	-0.103426	0.00649684	7.22573e-06	1.13416e-05	-7.81939e-06	-340.995	979.586	-1429.63	
9794	0.00570686	-0.103426	0.00649684	6.79607e-06	1.25759e-05	-9.62073e-06	-340.995	979.586	-1429.63	
9825	0.005683	-0.10345	0.00652176	6.71424e-06	1.2811e-05	-9.96384e-06	-2298.96	-2291.44	2401.89	
9855	0.00573048	-0.103437	0.00653246	5.61074e-06	1.17111e-05	-8.81093e-06	4596.57	1241.47	1036.02	
9884	0.00573048	-0.103437	0.00653246	1.18161e-05	1.33871e-05	-7.4123e-06	4596.57	1241.47	1036.02	
9944	0.00572912	-0.103433	0.00653545	-9.32278e-06	2.41585e-05	-3.49614e-06	-133.22	330.029	292.024	
9975	0.00568248	-0.103425	0.00651628	-9.35475e-06	2.42377e-05	-3.42605e-06	1105.02	-8550.57	3661.54	
10004	0.00562845	-0.103418	0.00654173	-8.82435e-06	2.01334e-05	-1.66851e-06	-5389.88	751.633	2538.79	
10035	0.00569058	-0.103367	0.00649522	-1.14115e-05	2.04942e-05	-4.49892e-07	6236.48	5097.82	-4669.36	
10064	0.00568967	-0.10333	0.00649704	-6.92122e-06	2.41646e-05	-3.81183e-06	-91.5318	3731.68	183.885	
10095	0.00562649	-0.103409	0.00652276	-6.9322e-06	2.46124e-05	-3.78976e-06	-6433.84	-8038.21	2618.87	
10124	0.00570348	-0.103337	0.00649628	-8.28331e-06	2.29244e-05	-3.2398e-06	7880.58	7364.76	-2710.07	
10154	0.00571058	-0.103315	0.00651475	-7.33764e-06	2.38082e-05	-3.56501e-06	732.077	2253.8	1902.81	
10185	0.00581606	-0.103172	0.00641424	-7.16194e-06	2.43491e-05	-3.10834e-06	10924.5	14860.4	-10410.6	
10214	0.00573447	-0.103199	0.00641675	-4.54006e-06	2.79156e-05	-5.60687e-06	-8498.7	-2868.55	262.166	
10245	0.00573447	-0.103199	0.00641675	-1.44835e-05	2.45594e-05	-5.30014e-06	-8498.7	-2868.55	262.166	
10274	0.00578531	-0.10317	0.00639441	-2.06026e-05	2.2494e-05	-5.11138e-06	5340.98	3052.83	-2346.92	
10305	0.0057638	-0.103314	0.00641925	-1.69173e-05	2.46005e-05	-6.73075e-06	-2273.79	-15156.8	2625.22	
10334	0.00575374	-0.103248	0.00643878	-1.86227e-05	1.32329e-05	-4.76184e-06	-1069.07	6940.25	2076.16	
10365	0.0057277	-0.103337	0.00650046	-1.91679e-05	1.67724e-05	-3.70299e-06	-2788.37	-9498	6604.11	
10395	0.00568012	-0.103342	0.00649404	-2.13428e-05	9.36398e-06	1.44821e-06	-5115.76	-512.677	-690.224	
10425	0.00568012	-0.103342	0.00649404	-2.99373e-05	8.50268e-06	2.88638e-07	-5115.76	-512.677	-690.224	
10455	0.00557704	-0.103508	0.00651405	-3.10116e-05	8.39502e-06	1.43691e-07	-11252	-18171.4	2185.14	
10485	0.00555087	-0.103563	0.00652255	-3.6075e-05	2.17889e-07	1.127e-06	-2868.92	-6056.12	931.721	
10514	0.00568308	-0.103244	0.00639358	-3.62471e-05	-1.45478e-07	1.18291e-06	4948.32	23176	-8683.94	
10545	0.00569538	-0.103236	0.00641832	-3.44657e-05	8.1979e-06	-1.94331e-06	1363.89	897.892	2745.21	
10575	0.00563039	-0.103215	0.00643894	-3.41793e-05	8.38645e-06	-1.36682e-06	-7258.26	2333	2302.9	
10605	0.00564958	-0.103286	0.00645837	-3.63568e-05	9.08635e-06	-6.75948e-07	2154.14	-7934.94	2181.46	
10635	0.00564958	-0.103286	0.00645837	-3.37718e-05	-4.35578e-07	1.9418e-06	2154.14	-7934.94	2181.46	
10664	0.00568184	-0.103304	0.00645745	-3.24794e-05	-5.19654e-06	3.25067e-06	3655.27	-2081.79	-105.25	
10724	0.00568215	-0.103353	0.00643149	4.79635e-10	4.23258e-10	3.52696e-10	245.101	-13935.5	-4124.31	
10755	0.0057395	-0.103291	0.00647922	8.87158e-08	-5.01634e-06	-1.4844e-06	6618.31	7122.01	5508.85	
10784	0.00567167	-0.103382	0.00649664	4.0597e-06	-7.43132e-07	1.82091e-06	-7858.69	-10489.6	2017.78	
10815	0.00570168	-0.103201	0.00641999	-1.83432e-06	-8.61032e-06	3.33425e-06	3494.1	21008	-8922.98	
10845	0.00566677	-0.103306	0.0064907	-8.90912e-07	-2.93816e-06	9.25047e-07	-4098.27	-12284.8	8301.17	
10874	0.00567185	-0.10328	0.0065071	-1.25976e-06	-4.0438e-06	1.67215e-06	600.803	3075.14	1937.24	
10905	0.00567185	-0.10328	0.0065071	-6.46937e-07	-9.07152e-07	3.64813e-06	600.803	3075.14	1937.24	
10934	0.00567185	-0.10328	0.0065071	4.88581e-07	4.90487e-06	7.30951e-06	600.803	3075.14	1937.24	
10965	0.00569828	-0.103169	0.00641682	9.21159e-07	7.11898e-06	8.70432e-06	3163.79	13235.4	-10806.7	
10994	0.005651	-0.103038	0.00633374	1.58555e-06	9.89842e-06	6.4349e-06	-5542.07	-8504.86	-1973.67	
11025	0.005651	-0.103038	0.00633374	-4.73241e-06	2.02872e-07	4.18492e-06	-5542.07	-8504.86	-1973.67	
11054	0.0056926	-0.103185	0.00637919	-8.55644e-06	-5.66548e-06	2.82309e-06	5061.57	-17840.9	5531.02	
11085	0.00570666	-0.103113	0.00635725	-5.06396e-06	-1.79757e-05	6.63949e-06	1721.14	8745.59	-2685.28	
11114	0.00567162	-0.103153	0.00639536	-4.18618e-06	-1.35155e-05	5.27e-06	-4315.64	-4873.02	4693.39	
11145	0.0057152	-0.1032	0.00638364	-7.68185e-06	-1.74626e-05	9.07165e-06	5387.07	-5789.42	-1448.51	
11175	0.00570046	-0.103238	0.00643129	-2.99509e-06	-2.24994e-05	7.81145e-06	-1830.39	-4707.89	5919.78	
11205	0.00569515	-0.103301	0.0064028	-4.25806e-06	-2.57479e-05	1.18961e-05	-664.638	-7895.3	-3561.98	
11235	0.00567481	-0.103401	0.00645811	-4.53721e-06	-2.90639e-05	1.04001e-05	-2560.6	-12664.5	6964.14	
11265	0.0056772	-0.103313	0.00647942	-5.45903e-06	-3.36231e-05	1.29072e-05	302.352	11155.3	2698.02	
11325	0.00565434	-0.103272	0.00645865	2.20088e-10	2.15833e-10	1.60241e-10	-6814.78	5877.63	-406.679	
11355	0.00566186	-0.103246	0.00639185	-1.83977e-06	1.58718e-06	-1.09643e-07	968.867	3291	-8600.36	
11384	0.00566186	-0.103246	0.00639185	-7.35261e-07	5.33892e-06	-9.91406e-06	968.867	3291	-8600.36	
11415	0.00566186	-0.103246	0.00639185	1.27029e-06	1.21513e-05	-2.77168e-05	968.867	3291	-8600.36	
11444	0.00566186	-0.103246	0.00639185	4.11876e-06	2.18268e-05	-5.30019e-05	968.867	3291	-8600.36	
11475	0.00567787	-0.10325	0.00646286	4.40942e-06	2.28141e-05	-5.5582e-05	306.2	5679.01	87.606	
11504	0.00569861	-0.103211	0.00646832	4.56559e-06	2.57104e-05	-5.55373e-05	2736.59	5174.86	720.898	
11535	0.00572361	-0.103352	0.00647618	6.78222e-06	2.99021e-05	-5.49534e-05	3311.49	-18762.3	1040.67	
11564	0.00575987	-0.103189	0.00642028	9.26584e-06	1.58303e-05	-5.41729e-05	4827.64	21737.9	-7442.58	
11595	0.00579066	-0.103213	0.00642364	1.23073e-05	2.95252e-05	-5.88617e-05	4125.11	-3256.17	449.127	
11624	0.00577309	-0.103201	0.00647128	1.3421e-05	2.86461e-05	-5.87404e-05	-2371.2	1743.93	6427.74	
11685	0.0056985	-0.103241	0.00645881	4.68156e-10	5.6526e-10	3.78953e-10	-10126.2	-5452.3	-1692.78	
11745	0.00570726	-0.103142	0.00640915	1.25036e-10	1.6837e-10	1.32144e-10	-8150.56	-2593.71	3337.7	
11774	0.00566808	-0.103261	0.0064797	-4.40118e-06	-1.40044e-06	1.80249e-06	-5415.72	-16453.3	9750.42	
11805	0.00566533	-0.103258	0.00646249	-7.81308e-06	-1.1766e-05	7.94526e-06	-381.511	459.107	-2389.78	
11834	0.00572166	-0.103264	0.00648205	-8.145e-06	-1.13666e-05	5.86615e-06	7850.83	-859.192	2724.88	
11865	0.00573437	-0.103288	0.00648225	-8.43724e-07	-1.21656e-05	8.40029e-06	1779.01	-3344.12	28.6937	
11895	0.00573437	-0.103288	0.00648225	2.41186e-06	-1.82853e-05	8.4528e-06	1779.01	-3344.12	28.6937	
11924	0.00573437	-0.103288	0.00648225	7.21518e-06	-2.73145e-05	8.53027e-06	1779.01	-3344.12	28.6937	
11955	0.00564106	-0.103385	0.00646404	7.64214e-06	-2.8117e-05	8.53716e-06	-351.097	5023.37	-5732.04	
12014	0.00567719	-0.103435	0.0064444	2.20566e-05	1.41847e-05	-5.73562e-06	5174.27	-7216.73	-2813.16	
12045	0.00567719	-0.103435	0.0064444	3.40092e-05	-2.48599e-06	-1.2234e-05	5174.27	-7216.73	-2813.16	
12074	0.00567719	-0.103436	0.0064444	5.04633e-05	-2.54352e-05	-2.11799e-05	5174.27	-7216.73	-2813.16	
12105	0.00556202	-0.103154	0.00639778	5.17052e-05	-2.71672e-05	-2.1855e-05	-17389.6	56504.7	-14591.6	
12134	0.00556658	-0.103121	0.00639292	4.33582e-05	-4.49377e-08	-2.8859e-05	668.932	4751.07	-713.721	
12194	0.00561958	-0.102997	0.00638747	4.59191e-10	7.93651e-10	4.27869e-10	15838.5	1250.62	6010.68	
12225	0.00560387	-0.103115	0.00640035	9.50767e-07	7.58307e-08	3.61069e-07	-2346.62	-17600	1924.67	
12254	0.00555277	-0.103005	0.00637809	2.46782e-07	-5.20416e-06	9.3847e-07	-7661.28	16466.8	-3336.82	
12285	0.00561494	-0.103049	0.00638032	-4.34999e-06	4.67589e-06	-1.06362e-06	9353.01	-6681.32	335.625	
12314	0.00557177	-0.103054	0.00634814	-2.10526e-06	3.07237e-06	-9.83075e-07	-6537.96	-750.318	-4873.81	
12345	0.00557177	-0.103054	0.00634814	-9.75468e-06	2.1945e-06	-6.68543e-06	-6537.96	-750.318	-4873.81	
12374	0.00553518	-0.103088	0.00640729	-1.13238e-05	2.01442e-06	-7.85514e-06	-5595.34	-5104.19	9044.39	
12404	0.00553518	-0.103088	0.00640729	-1.77025e-05	-3.80435e-06	2.45546e-06	-5595.34	-5104.19	9044.39	
12435	0.00558061	-0.103053	0.00637788	-1.87096e-05	-4.7231e-06	4.08345e-06	6744.48	13974.2	-1813.76	
12465	0.00553615	-0.103017	0.00637182	-1.56746e-05	1.56527e-06	3.26726e-06	-6891.62	5576.52	-939.225	
12495	0.00553615	-0.103017	0.00637182	-2.49783e-05	9.09358e-06	1.99931e-06	-6891.62	5576.52	-939.225	
12524	0.0055352	-0.10317	0.00641592	-2.80795e-05	1.1603e-05	1.57666e-06	-148.461	-23896.6	6900.26	
12555	0.00552207	-0.10315	0.00637527	-2.81909e-05	-6.31944e-06	6.75185e-06	-2061.86	3064.74	-6381.8	
12615	0.00558171	-0.103165	0.00642227	5.94696e-10	3.21299e-10	3.69659e-10	5590.17	-5791.23	7626.24	
12644	0.00556949	-0.103234	0.00641936	3.18699e-06	-3.30068e-06	4.34733e-06	-1948.33	-11060.6	-462.867	
12675	0.00559435	-0.10326	0.00645251	1.43349e-06	-1.32552e-05	3.93075e-06	3974.91	-4185.99	5299.41	
12705	0.00556043	-0.103244	0.00645579	2.86446e-06	-1.47622e-05	5.83853e-06	-5463.68	2652.42	529.303	
12764	0.006508	-0.103293	0.00635158	1.48301e-10	7.39944e-11	8.378e-11	135008	55535.5	-36293	
12795	0.0073285	-0.103551	0.00680162	5.26533e-05	2.16589e-05	-1.41542e-05	134053	-42253	73527.1	
12824	0.00741411	-0.102917	0.00642021	8.48259e-05	1.15182e-05	3.49229e-06	14061.2	104168	-62647.3	
12855	0.00741411	-0.102917	0.00642021	0.000101277	0.000133394	-6.9805e-05	14061.2	104168	-62647.3	
12914	0.00690928	-0.103414	0.00656435	6.3376e-11	1.70861e-10	1.2434e-10	-8233.48	-48026.9	17301.5	
12945	0.00690637	-0.102592	0.0064283	-4.69302e-06	-2.73752e-05	9.862e-06	-485.882	137234	-22731.6	
12974	0.00651357	-0.102972	0.00651379	-5.08659e-06	8.37846e-05	-8.55061e-06	-65843.3	-63664.3	14330.5	
13005	0.00641089	-0.103167	0.00657642	-5.24938e-05	3.79463e-05	1.76733e-06	-17302.1	-32921.6	10554.8	
13034	0.00638814	-0.102741	0.00654117	-5.92416e-05	2.51069e-05	5.8837e-06	-3856.77	72379.3	-5976.71	
13065	0.00645453	-0.10309	0.0065466	-6.16714e-05	7.07058e-05	2.11837e-06	11295.9	-59460.8	922.539	
13095	0.00646179	-0.103152	0.00653468	-5.7266e-05	4.75161e-05	2.47816e-06	1241.61	-10544.9	-2039.14	
13125	0.00626013	-0.103351	0.00664487	-5.67817e-05	4.34036e-05	1.6829e-06	-34670.6	-34324.3	18944	
13154	0.00604574	-0.101891	0.00650747	-6.40626e-05	3.61955e-05	5.66113e-06	-37055.6	252464	-23747.8	
13185	0.00604574	-0.101891	0.00650747	-0.000106306	0.000324004	-2.14113e-05	-37055.6	252464	-23747.8	
13214	0.00604574	-0.101891	0.00650747	-0.000180788	0.000831457	-6.91443e-05	-37055.6	252464	-23747.8	
13274	0.00622462	-0.101685	0.00649608	4.21159e-10	3.42896e-10	4.76778e-10	70634.9	-15747.6	19389.2	
13305	0.00640378	-0.102181	0.00656885	5.29766e-05	-1.18104e-05	1.45424e-05	31595.7	-87362.7	12834.4	
13334	0.00615889	-0.101576	0.00641329	7.76212e-05	-7.99533e-05	2.45532e-05	-43371.8	107077	-27551.8	
13365	0.00615889	-0.101576	0.00641329	3.45549e-06	0.000103149	-2.25603e-05	-43371.8	107077	-27551.8	
13394	0.00625113	-0.101803	0.00637077	-8.25489e-06	0.00013206	-2.99993e-05	16526.9	-40699.1	-7616.68	
13425	0.00652816	-0.101638	0.00650759	6.69638e-07	0.000110082	-3.41123e-05	49795.3	29734.1	24593.4	
13454	0.00607758	-0.101449	0.0064934	1.85959e-05	0.000120787	-2.52587e-05	-81414.9	34049.4	-2563.93	
13485	0.00607311	-0.101022	0.00658845	-9.43632e-07	0.000128958	-2.5874e-05	-811.947	77557.9	17263.6	
13514	0.00714677	-0.101457	0.00707135	-1.21157e-06	0.000154553	-2.0177e-05	195762	-79231.2	88047.4	
13545	0.00714705	-0.101689	0.00741256	6.92627e-05	0.000126029	1.15201e-05	50.5297	-42564.3	62490.1	
13574	0.00634043	-0.102441	0.00726383	6.92764e-05	0.000114537	2.83924e-05	-148425	-138222	-27367.5	
13605	0.00588014	-0.1013	0.00672946	2.47489e-05	7.30704e-05	2.01821e-05	-85073.1	210815	-98765.3	
13634	0.00644059	-0.101249	0.00647474	6.88358e-06	0.000117342	-5.58566e-07	104074	9478.96	-47300.3	
13665	0.00644059	-0.101249	0.00647474	0.000125528	0.000128148	-5.44809e-05	104074	9478.96	-47300.3	
13725	0.00726337	-0.101403	0.00698543	2.03317e-10	1.24482e-10	1.81702e-10	49035.2	-16488	60048.4	
13785	0.0063332	-0.100914	0.00637512	5.67438e-10	1.41485e-11	3.8182e-10	5288.72	40623.7	-34779.8	
13814	0.00649857	-0.101121	0.00664099	2.22183e-06	1.7062e-05	-1.46071e-05	31492.9	-39269.5	50631.4	
13845	0.00649857	-0.101121	0.00664099	4.47372e-05	-3.59519e-05	5.37452e-05	31492.9	-39269.5	50631.4	
13875	0.00673455	-0.101843	0.00712746	5.8909e-05	-5.36231e-05	7.65293e-05	45326.4	-138803	93438	
13935	0.00648744	-0.101267	0.00692751	1.79119e-10	2.74357e-10	1.521e-10	-63431.2	73301.6	-44986.4	
13964	0.00613636	-0.101058	0.00670062	-2.2835e-05	2.63888e-05	-1.61949e-05	-68339.6	40828.2	-44165	
14025	0.00718931	-0.101237	0.00637258	3.85459e-11	3.60778e-11	1.70456e-10	49595.7	-10498.7	12418.8	
14055	0.00718931	-0.101237	0.00637258	6.10027e-05	-1.29134e-05	1.52752e-05	49595.7	-10498.7	12418.8	
14085	0.00651223	-0.101435	0.00652138	9.52238e-05	-2.01575e-05	2.38442e-05	-133884	-39170.7	29424.1	
14114	0.00682833	-0.101411	0.00634342	-5.18941e-06	-4.95356e-05	4.59123e-05	62744	4880.5	-35324.9	
14174	0.00674776	-0.101342	0.0064572	4.1396e-10	3.64017e-10	1.70595e-10	-3121.45	6122.27	781.236	
14205	0.00710264	-0.100756	0.00594809	-2.24703e-06	4.4084e-06	5.62661e-07	71367.7	117888	-102383	
14234	0.00658383	-0.100246	0.0061976	4.48556e-05	8.22142e-05	-6.70099e-05	-104791	102960	50395.9	
14265	0.00732548	-0.0994089	0.00608425	7.13085e-06	0.00011928	-4.88674e-05	150666	170116	-23025.8	
14294	0.00740325	-0.0993525	0.00600699	5.23307e-05	0.000170315	-5.57751e-05	15866.2	11498.1	-15763	
14325	0.00740325	-0.0993525	0.00600699	7.18461e-05	0.000184457	-7.51636e-05	15866.2	11498.1	-15763	
14354	0.00787368	-0.0985546	0.0060913	7.27981e-05	0.000185147	-7.61094e-05	96900	164361	17366.5	
14385	0.00787368	-0.0985546	0.0060913	0.000168729	0.000347865	-5.89166e-05	96900	164361	17366.5	
14444	0.00671399	-0.0983803	0.00571071	1.11516e-10	2.36848e-10	2.29767e-10	-193663	37208.3	-118474	
14475	0.0058881	-0.0979307	0.00473504	-0.000145247	2.79065e-05	-8.88551e-05	-172447	93869	-203723	
14504	0.00421972	-0.0987161	0.00578653	-0.000253888	8.70439e-05	-0.000217201	-349956	-164738	220558	
14535	0.00332349	-0.098047	0.00716501	-0.000526854	-4.14518e-05	-4.51657e-05	-188667	140849	290186	
14564	0.00142053	-0.0974976	0.00593302	-0.000526854	-4.14518e-05	-4.51657e-05	-136729	32491.9	-43901.3	
14595	0.00142053	-0.0974976	0.00593302	-0.000654012	-1.12344e-05	-8.59939e-05	-136729	32491.9	-43901.3	
14625	0.00142053	-0.0974976	0.00593302	-0.000904227	4.82257e-05	-0.000166333	-136729	32491.9	-43901.3	
14654	0.00272139	-0.0972654	0.00552199	-0.000986265	6.77208e-05	-0.000192674	278583	49724	-88022.6	
14685	0.00506336	-0.0940746	0.00516839	-0.000911047	8.11463e-05	-0.00021644	494853	413472	-60313.3	
14745	0.0085356	-0.0914008	0.00358195	1.02843e-10	1.3151e-10	-2.07911e-11	380977	351393	-262031	
14774	0.0100161	-0.0895098	0.00355195	9.14346e-05	8.43344e-05	-6.28876e-05	322805	412313	-6541.66	
14805	0.0100161	-0.0895098	0.00355195	0.000469117	0.00056674	-7.05413e-05	322805	412313	-6541.66	
14834	0.0127933	-0.0867972	0.00207244	0.000624063	0.00076465	-7.36813e-05	609791	595624	-324861	
14865	0.0127933	-0.0867972	0.00207244	0.00148387	0.00160448	-0.000531735	609791	595624	-324861	
14925	0.0283117	-0.0786938	-0.00524577	1.48977e-10	6.54703e-11	-1.41283e-10	1.72328e+06	599921	-564902	
14955	0.0366143	-0.0759438	-0.00856316	0.000930574	0.000323958	-0.000305047	1.85217e+06	613474	-740058	
14985	0.0462962	-0.0738608	-0.0132239	0.00143066	0.000489596	-0.000504863	2.17146e+06	467188	-1.04531e+06	
15015	0.0578063	-0.0712675	-0.0183136	0.00175638	0.000559674	-0.00066166	2.59323e+06	584266	-1.14671e+06	
15075	0.0851007	-0.06575	-0.0315959	-4.62244e-11	8.25853e-11	-2.96351e-10	3.33951e+06	886753	-1.86774e+06	
15165	0.140448	-0.0601127	-0.0803388	1.52035e-10	3.78621e-10	-5.6178e-10	4.53647e+06	-21040.6	-4.70317e+06	
15195	0.140448	-0.0601127	-0.0803388	0.00585204	-2.71419e-05	-0.00606708	4.53647e+06	-21040.6	-4.70317e+06	
15225	0.161356	-0.0576428	-0.10725	0.00939049	-4.35536e-05	-0.00973555	4.82999e+06	570568	-6.21671e+06	
15255	0.18458	-0.0624492	-0.13651	0.0121436	0.00028167	-0.0132791	5.39118e+06	-1.11575e+06	-6.79243e+06	
15285	0.206233	-0.0650004	-0.16843	0.0169956	-0.000722502	-0.0193923	5.03882e+06	-593696	-7.42815e+06	
15315	0.232506	-0.0675929	-0.207178	0.0213794	-0.00123902	-0.0258548	6.13917e+06	-605758	-9.05397e+06	
15345	0.232506	-0.0675929	-0.207178	0.0322457	-0.00231121	-0.0418803	6.13917e+06	-605758	-9.05397e+06	
15375	0.275476	-0.0851685	-0.279256	0.033535	-0.00243842	-0.0437816	4.98289e+06	792737	-9.04523e+06	
15404	0.304794	-0.0883945	-0.316365	0.0344319	-0.00229573	-0.0454098	6.95136e+06	-764888	-8.7984e+06	
15435	0.332677	-0.100178	-0.347242	0.03756	-0.00263993	-0.049369	6.62993e+06	-2.80182e+06	-7.34183e+06	
15465	0.358207	-0.104822	-0.384492	0.0389523	-0.00322831	-0.0509108	6.10046e+06	-1.10965e+06	-8.90089e+06	
15495	0.39727	-0.121002	-0.419878	0.0411484	-0.00362778	-0.0541151	9.3643e+06	-3.87866e+06	-8.4828e+06	
15525	0.421841	-0.125356	-0.462892	0.0425531	-0.00420958	-0.0553876	5.9183e+06	-1.04879e+06	-1.03609e+07	
15555	0.460121	-0.145046	-0.502801	0.0448612	-0.00461861	-0.0594283	9.24665e+06	-4.75628e+06	-9.64005e+06	
15584	0.460121	-0.145046	-0.502801	0.056512	-0.0106115	-0.0715748	9.24665e+06	-4.75628e+06	-9.64005e+06	
15615	0.504843	-0.161632	-0.547379	0.0640018	-0.0144641	-0.0793832	1.08669e+07	-4.03002e+06	-1.08319e+07	
15645	0.53932	-0.18054	-0.592505	0.073456	-0.0179702	-0.088807	8.40742e+06	-4.61099e+06	-1.10044e+07	
15705	0.626325	-0.214616	-0.693167	0.0354588	-0.144777	-2.6369e-09	1.16754e+07	-4.53997e+06	-1.18122e+07	
15734	0.664178	-0.23356	-0.752321	0.0442154	-0.148182	-0.00885918	9.34101e+06	-4.67487e+06	-1.45975e+07	
15765	0.708204	-0.25717	-0.818241	0.0478584	-0.150005	-0.0145522	1.09241e+07	-5.85839e+06	-1.63564e+07	
15794	0.756138	-0.272338	-0.875296	0.0514634	-0.151939	-0.0199498	1.19404e+07	-3.77836e+06	-1.42126e+07	
15825	0.756138	-0.272338	-0.875296	0.0665083	-0.156699	-0.0378577	1.19404e+07	-3.77836e+06	-1.42126e+07	
15854	0.809786	-0.292718	-0.92927	0.0718815	-0.1584	-0.0442534	1.34588e+07	-5.11266e+06	-1.35407e+07	
15885	0.906645	-0.334286	-1.043	0.0747079	-0.159473	-0.0470969	1.49874e+07	-5.24043e+06	-1.41199e+07	
15914	0.961501	-0.361533	-1.10457	0.0796537	-0.161203	-0.0517565	1.38732e+07	-6.89084e+06	-1.55697e+07	
15945	0.961501	-0.361533	-1.10457	0.097134	-0.169885	-0.0713743	1.38732e+07	-6.89084e+06	-1.55697e+07	
15974	1.02053	-0.419837	-1.19128	0.107955	-0.17526	-0.0835187	1.50134e+07	-1.48291e+07	-2.20543e+07	
16005	1.08928	-0.471813	-1.27501	0.118765	-0.185937	-0.0993978	1.75572e+07	-1.32743e+07	-2.1384e+07	
16094	1.28032	-0.513829	-1.49853	0.688673	0.206057	3.60514e-11	1.13225e+07	-4.44605e+06	-1.30963e+07	
16125	1.28032	-0.513829	-1.49853	0.699543	0.201789	-0.0125724	1.13225e+07	-4.44605e+06	-1.30963e+07	
16155	1.34085	-0.528106	-1.56495	0.705318	0.199521	-0.0192516	1.5764e+07	-3.71812e+06	-1.7298e+07	
16184	1.37488	-0.556022	-1.6133	0.710993	0.198183	-0.0254788	8.89923e+06	-7.30108e+06	-1.26447e+07	
16215	1.42417	-0.576243	-1.67114	0.714463	0.195335	-0.0304103	1.29378e+07	-5.30814e+06	-1.51838e+07	
16244	1.49377	-0.6152	-1.73651	0.718345	0.193743	-0.0349654	1.83428e+07	-1.02668e+07	-1.72283e+07	
16275	1.53904	-0.632056	-1.77069	0.72825	0.188199	-0.0442687	1.1966e+07	-4.45482e+06	-9.03292e+06	
16304	1.53904	-0.632056	-1.77069	0.745122	0.181918	-0.0570051	1.1966e+07	-4.45482e+06	-9.03292e+06	
16335	1.57915	-0.664487	-1.7966	0.752301	0.179245	-0.0624249	1.06747e+07	-8.63237e+06	-6.89634e+06	
16365	1.6123	-0.680995	-1.81256	0.760628	0.172511	-0.067804	8.85174e+06	-4.40709e+06	-4.26197e+06	
16395	1.6432	-0.682508	-1.8325	0.766735	0.169471	-0.0707448	8.28114e+06	-405545	-5.3456e+06	
16425	1.67534	-0.694655	-1.83963	0.772946	0.169166	-0.074754	8.64398e+06	-3.26705e+06	-1.91658e+06	
16455	1.70837	-0.708924	-1.84125	0.780726	0.166226	-0.0764789	8.91216e+06	-3.84961e+06	-437702	
16485	1.73003	-0.722592	-1.82489	0.786608	0.163685	-0.0767678	5.8694e+06	-3.70443e+06	4.43478e+06	
16545	1.77741	-0.737057	-1.81875	0.295455	0.045029	7.11307e-10	6.10022e+06	-3.41954e+06	372850	
16634	1.84132	-0.748192	-1.77377	0.261186	0.0328659	3.61934e-10	5.82798e+06	1.46434e+06	3.56507e+06	
16665	1.8536	-0.759561	-1.73951	0.263459	0.033437	0.00139038	3.40454e+06	-3.1525e+06	9.5015e+06	
16694	1.8536	-0.759561	-1.73951	0.267749	0.0294648	0.0133623	3.40454e+06	-3.1525e+06	9.5015e+06	
16725	1.86936	-0.762917	-1.71925	0.2702	0.027195	0.0202033	4.39818e+06	-936327	5.65038e+06	
16754	1.88428	-0.766071	-1.69023	0.273367	0.0265209	0.0242716	4.1749e+06	-882589	8.12179e+06	
16785	1.91961	-0.768099	-1.69388	0.276247	0.0259119	0.0298756	9.92704e+06	-569935	-1.0267e+06	
16814	1.91961	-0.768099	-1.69388	0.291734	0.0250228	0.028274	9.92704e+06	-569935	-1.0267e+06	
16845	1.93255	-0.777801	-1.64789	0.292329	0.0249886	0.0282124	2.22012e+06	-1.54916e+06	7.82432e+06	
16874	1.93412	-0.775352	-1.62957	0.293062	0.0244774	0.0307944	445129	696444	5.20841e+06	
16905	1.93412	-0.775352	-1.62957	0.293623	0.0253549	0.037357	445129	696444	5.20841e+06	
16934	1.93407	-0.781499	-1.59666	0.293689	0.0254594	0.0381383	392121	-1.46866e+06	4.59617e+06	
16965	1.93299	-0.775244	-1.58949	0.293784	0.0251069	0.0392414	-308368	1.79851e+06	2.06337e+06	
16994	1.93238	-0.773607	-1.57623	0.293719	0.0254846	0.0396747	-177670	472382	3.82442e+06	
17025	1.9261	-0.773437	-1.57676	0.29366	0.0256405	0.0409367	-1.81772e+06	49174.3	-153217	
17054	1.92321	-0.7777	-1.57351	0.293388	0.0256478	0.0409137	-840791	-1.23916e+06	945306	
17085	1.92321	-0.7777	-1.57351	0.292479	0.0243095	0.0419347	-840791	-1.23916e+06	945306	
17114	1.90259	-0.767369	-1.5647	0.291925	0.0234917	0.0425586	-6.02192e+06	3.01805e+06	2.57451e+06	
17145	1.89629	-0.760457	-1.56609	0.28795	0.0254836	0.0442577	-1.8483e+06	2.02664e+06	-409242	
17174	1.88819	-0.762795	-1.56665	0.28673	0.0268212	0.0439876	-2.38369e+06	-687882	-162113	
17205	1.88151	-0.762128	-1.57139	0.28623	0.0266767	0.0439536	-1.97369e+06	197338	-1.4036e+06	
17234	1.87321	-0.761233	-1.57313	0.285401	0.0267596	0.0433641	-2.46241e+06	265360	-515211	
17265	1.8653	-0.755564	-1.58089	0.283628	0.0269507	0.0429931	-2.34989e+06	1.68532e+06	-2.30763e+06	
17294	1.8653	-0.755564	-1.58089	0.279891	0.0296303	0.039324	-2.34989e+06	1.68532e+06	-2.30763e+06	
17325	1.84064	-0.75303	-1.58887	0.27968	0.029782	0.0391163	-2.59405e+06	339738	-2.15217e+06	
17385	1.83128	-0.749437	-1.60058	-0.134354	-0.0360138	2.3511e-10	-1.68364e+06	549901	-2.35291e+06	
17445	1.81369	-0.738133	-1.61077	-0.120429	-0.0553934	2.69357e-10	-4.53949e+06	3.16006e+06	-2.25831e+06	
17474	1.81369	-0.738133	-1.61077	-0.125332	-0.0519805	-0.00243897	-4.53949e+06	3.16006e+06	-2.25831e+06	
17505	1.81063	-0.738545	-1.61315	-0.126285	-0.0513169	-0.00291321	-939360	-125969	-727754	
17535	1.79999	-0.729976	-1.61362	-0.126736	-0.0513774	-0.00326254	-3.26559e+06	2.63002e+06	-142827	
17565	1.79556	-0.728061	-1.62021	-0.128499	-0.0499571	-0.00333966	-1.36251e+06	589355	-2.03075e+06	
17595	1.78836	-0.721242	-1.62011	-0.129562	-0.0494974	-0.00492365	-2.22319e+06	2.10482e+06	32886.7	
17625	1.77561	-0.716819	-1.61903	-0.13103	-0.0481083	-0.00490194	-3.94932e+06	1.37075e+06	332173	
17654	1.77183	-0.716307	-1.62054	-0.132925	-0.0474503	-0.0047425	-1.17655e+06	159261	-469739	
17685	1.76783	-0.718397	-1.62478	-0.133172	-0.0474169	-0.00484115	-1.25151e+06	-653347	-1.32313e+06	
17714	1.7639	-0.716063	-1.6291	-0.133473	-0.0475737	-0.0051587	-1.22988e+06	731962	-1.35456e+06	
17745	1.7639	-0.716063	-1.6291	-0.134912	-0.0467173	-0.00674354	-1.22988e+06	731962	-1.35456e+06	
17774	1.7639	-0.716063	-1.6291	-0.137421	-0.0452241	-0.00950684	-1.22988e+06	731962	-1.35456e+06	
17805	1.75699	-0.707741	-1.63147	-0.138085	-0.0448288	-0.0102383	-2.1879e+06	2.63263e+06	-749447	
17865	1.74905	-0.705126	-1.63313	-0.0677571	-0.050941	3.14019e-10	-575507	450179	-504115	
17894	1.74242	-0.700455	-1.63389	-0.0680507	-0.0507115	-0.000257098	-2.12138e+06	1.49281e+06	-243349	
17925	1.73283	-0.690168	-1.63137	-0.0682416	-0.0505771	-0.000279	-163545	158113	871667	
17954	1.72478	-0.683599	-1.63226	-0.0682808	-0.0505392	-6.97995e-05	-2.59086e+06	2.11559e+06	-285640	
17985	1.72006	-0.680504	-1.63342	-0.0696022	-0.0494602	-0.000215476	-1.52407e+06	999305	-375437	
18014	1.71678	-0.685716	-1.62659	-0.070288	-0.0490105	-0.000384422	-1.06295e+06	-1.68859e+06	2.2128e+06	
18045	1.71678	-0.685716	-1.62659	-0.0717549	-0.0513408	0.00266924	-1.06295e+06	-1.68859e+06	2.2128e+06	
18105	1.72087	-0.678443	-1.63656	-0.0697272	-0.0342305	1.47775e-10	2.93037e+06	-136170	-2.81674e+06	
18134	1.71378	-0.676493	-1.63346	-0.0676173	-0.0343286	-0.00202805	-2.32468e+06	639754	1.01555e+06	
18165	1.70789	-0.668371	-1.62942	-0.0678962	-0.0342518	-0.00190618	-528718	-231507	1.36949e+06	
18195	1.70213	-0.664406	-1.63078	-0.0679914	-0.0342935	-0.00165968	-1.90713e+06	1.31187e+06	-449163	
18224	1.70213	-0.664406	-1.63078	-0.0699939	-0.032916	-0.0021313	-1.90713e+06	1.31187e+06	-449163	
18255	1.69964	-0.662332	-1.62655	-0.0710238	-0.0322076	-0.00237384	-829329	689596	1.40694e+06	
18284	1.69964	-0.662332	-1.62655	-0.0721931	-0.0312353	-0.000390053	-829329	689596	1.40694e+06	
18344	1.68325	-0.653572	-1.63622	-0.0833043	-0.0345858	2.22354e-11	-266126	988178	-1.77671e+06	
18375	1.67673	-0.660345	-1.63831	-0.08344	-0.0340819	-0.000906123	-2.197e+06	-2.28249e+06	-705330	
18405	1.66581	-0.655248	-1.64467	-0.0843627	-0.0350405	-0.00120236	-3.69352e+06	1.72373e+06	-2.15052e+06	
18434	1.66333	-0.655669	-1.64356	-0.0848059	-0.0348337	-0.00146042	-844242	-142883	378643	
18465	1.65633	-0.650304	-1.65065	-0.0850592	-0.0348765	-0.00134683	-2.38456e+06	1.82713e+06	-2.41734e+06	
18494	1.65088	-0.646562	-1.65345	-0.0852023	-0.0347669	-0.00149187	-1.86297e+06	1.27966e+06	-955205	
18525	1.64155	-0.644194	-1.65941	-0.0855376	-0.0345365	-0.00166381	-3.19983e+06	812222	-2.04406e+06	
18554	1.63543	-0.637678	-1.66312	-0.0859216	-0.0344391	-0.0019091	-2.10618e+06	2.24219e+06	-1.27768e+06	
18585	1.63543	-0.637678	-1.66312	-0.0881331	-0.0320848	-0.00325066	-2.10618e+06	2.24219e+06	-1.27768e+06	
18614	1.63357	-0.638977	-1.66872	-0.0892072	-0.0309413	-0.00390227	-643162	-449234	-1.93505e+06	
18645	1.62651	-0.634472	-1.67247	-0.0896317	-0.0312378	-0.00517941	-2.44858e+06	1.56233e+06	-1.30295e+06	
18674	1.6182	-0.633464	-1.67757	-0.0900725	-0.0309565	-0.00541394	-2.89586e+06	351097	-1.77792e+06	
18705	1.61477	-0.636727	-1.67149	-0.0912887	-0.0308091	-0.00616066	-1.19884e+06	-1.1397e+06	2.1239e+06	
18734	1.60996	-0.635063	-1.67559	-0.0919361	-0.0314245	-0.00501375	-1.68346e+06	582833	-1.43537e+06	
18765	1.60996	-0.635063	-1.67559	-0.0944108	-0.0305678	-0.00712374	-1.68346e+06	582833	-1.43537e+06	
18794	1.61094	-0.639298	-1.67654	-0.0950673	-0.0303404	-0.00768354	345794	-1.49376e+06	-335860	
18825	1.60451	-0.634827	-1.68029	-0.0948599	-0.0312367	-0.00788505	-2.27314e+06	1.58102e+06	-1.32337e+06	
18855	1.56887	-0.6178	-1.65023	-0.0949281	-0.0311893	-0.00792476	-1.0763e+07	6.11796e+06	1.02492e+07	
18914	1.56618	-0.612068	-1.64561	-0.0285096	-0.0208919	5.88138e-10	-960910	2.04384e+06	1.64556e+06	
19005	1.55924	-0.614698	-1.63652	-0.043524	0.000419484	3.4863e-10	-1.04095e+06	186608	756517	
19035	1.55772	-0.616921	-1.63417	-0.0439612	0.000497859	0.000317737	-550659	-804019	848308	
19065	1.5508	-0.620489	-1.6309	-0.0442256	0.00011193	0.000724925	-2.50911e+06	-1.29496e+06	1.18653e+06	
19094	1.55143	-0.620686	-1.63065	-0.0453546	-0.000470802	0.00125887	228302	-71639.4	90637.5	
19124	1.55095	-0.624902	-1.62853	-0.0452656	-0.000498741	0.00129421	-176496	-1.53986e+06	777005	
19154	1.55204	-0.628217	-1.62656	-0.0453503	-0.00123787	0.00166718	398361	-1.21399e+06	721623	
19185	1.54668	-0.626338	-1.62695	-0.0451352	-0.00189343	0.00205685	-1.96626e+06	690309	-143262	
19245	1.54055	-0.630116	-1.6224	-0.041559	0.045132	1.87715e-10	-2.26455e+06	-1.39441e+06	1.67744e+06	
19274	1.53594	-0.627463	-1.61649	-0.0424422	0.0445882	0.0006542	-1.7078e+06	984393	2.19384e+06	
19305	1.53046	-0.625831	-1.61431	-0.0434669	0.0451788	0.0019705	-2.03887e+06	606839	810172	
19334	1.52763	-0.639939	-1.61277	-0.0435892	0.0452152	0.00201911	-16985.3	-2.55877e+06	775198	
19365	1.52763	-0.639939	-1.61277	-0.043606	0.0426821	0.00278656	-16985.3	-2.55877e+06	775198	
19394	1.52097	-0.643514	-1.61092	-0.0436198	0.0406094	0.00341447	-2.49605e+06	-1.34095e+06	692103	
19425	1.51745	-0.648095	-1.61119	-0.0445184	0.0401267	0.00366363	-1.3293e+06	-1.7263e+06	-99903.7	
19454	1.51323	-0.648093	-1.60836	-0.0451963	0.0392463	0.00361268	-1.59352e+06	816.294	1.06664e+06	
19485	1.50966	-0.653788	-1.60724	-0.0458656	0.0392466	0.00406067	-1.35375e+06	-2.15912e+06	426129	
19514	1.50377	-0.659508	-1.60501	-0.0465154	0.0382103	0.00426521	-2.2387e+06	-2.17488e+06	848051	
19545	1.50136	-0.668234	-1.60389	-0.0470527	0.0376883	0.00446874	-918960	-3.33057e+06	425667	
19574	1.49565	-0.665558	-1.60296	-0.0474111	0.0363894	0.00463475	-2.18346e+06	1.02413e+06	356640	
19634	1.48943	-0.672992	-1.60024	-0.0492984	0.0657716	3.92075e-10	-2.38974e+06	-2.85607e+06	1.04619e+06	
19665	1.48731	-0.67612	-1.60052	-0.051019	0.0637153	0.000753257	-820412	-1.20702e+06	-110887	
19694	1.48663	-0.681785	-1.60083	-0.0517082	0.0627014	0.000660112	-260836	-2.19074e+06	-119641	
19725	1.47911	-0.68358	-1.59887	-0.0519351	0.0607954	0.000556024	-2.91899e+06	-696423	761426	
19754	1.47911	-0.68358	-1.59887	-0.0570142	0.0595836	0.00188091	-2.91899e+06	-696423	761426	
19785	1.48183	-0.693018	-1.59948	-0.0589407	0.059124	0.00238345	1.06268e+06	-3.68621e+06	-239029	
19845	1.46203	-0.703392	-1.59137	-0.0125447	0.0536161	5.33163e-11	-3.50005e+06	-1.25539e+06	2.01512e+06	
19874	1.4628	-0.713444	-1.59	-0.0139098	0.0531265	0.000785897	303123	-3.96517e+06	540003	
19904	1.45941	-0.716818	-1.595	-0.0138097	0.051818	0.000964098	-1.33912e+06	-1.33517e+06	-1.97863e+06	
19935	1.45941	-0.716818	-1.595	-0.015497	0.0501357	-0.00152898	-1.33912e+06	-1.33517e+06	-1.97863e+06	
19965	1.45905	-0.726617	-1.59743	-0.01618	0.0494548	-0.00253808	-144858	-3.89922e+06	-969890	
19994	1.45463	-0.730948	-1.60035	-0.0162799	0.0467643	-0.0032073	-1.76376e+06	-1.72763e+06	-1.16219e+06	
20055	1.44674	-0.740979	-1.59969	-0.0582157	0.0698699	4.36199e-10	-1.53577e+06	-1.6486e+06	507704	
20085	1.44275	-0.744705	-1.5957	-0.0594136	0.068584	0.00039601	-1.60307e+06	-1.49919e+06	1.60193e+06	
20145	1.43363	-0.75155	-1.59925	-0.0503694	0.0499599	4.89052e-10	-1.30434e+06	-1.34093e+06	-317314	
20175	1.43063	-0.752426	-1.59864	-0.0508781	0.049437	-0.000123752	-1.21827e+06	-355873	251140	
20204	1.42595	-0.756034	-1.59949	-0.0514629	0.0492661	-3.2047e-06	-1.90724e+06	-1.47059e+06	-349200	
20234	1.42595	-0.756034	-1.59949	-0.0540948	0.0472367	-0.000485101	-1.90724e+06	-1.47059e+06	-349200	
20265	1.4195	-0.757787	-1.6022	-0.0547242	0.0467514	-0.000600337	-2.64661e+06	-719235	-1.11192e+06	
20294	1.4163	-0.767855	-1.60258	-0.0559152	0.0464278	-0.0011007	-1.31793e+06	-4.14033e+06	-153627	
20324	1.41385	-0.776357	-1.60377	-0.0566269	0.044192	-0.00118366	-1.00821e+06	-3.50557e+06	-494121	
20355	1.41385	-0.776357	-1.60377	-0.058109	0.0390388	-0.00191002	-1.00821e+06	-3.50557e+06	-494121	
20385	1.40905	-0.781957	-1.60417	-0.0588651	0.0364096	-0.00228061	-1.99232e+06	-2.3214e+06	-165913	
20414	1.40579	-0.789383	-1.61142	-0.0590444	0.0362007	-0.00229554	-1.38599e+06	-884944	-2.12952e+06	
20475	1.40205	-0.792599	-1.6135	-0.0153622	0.0414931	2.70555e-10	-1.56148e+06	-1.34348e+06	-872247	
20505	1.40057	-0.79589	-1.61342	-0.0167206	0.0403243	-0.000758855	-621882	-1.3798e+06	35861	
20534	1.39769	-0.798637	-1.61852	-0.0170751	0.0395378	-0.000738414	-1.21251e+06	-1.15613e+06	-2.14908e+06	
20565	1.39814	-0.804007	-1.6202	-0.0178026	0.0388441	-0.00202786	188818	-2.26663e+06	-705834	
20594	1.39326	-0.802819	-1.62134	-0.017729	0.0379601	-0.00230314	-2.06674e+06	503113	-482411	
20624	1.38843	-0.8042	-1.62583	-0.018721	0.0382016	-0.00253469	-2.05014e+06	-586640	-1.90731e+06	
20655	1.38048	-0.812055	-1.62676	-0.0200126	0.037832	-0.0037363	-3.38281e+06	-3.34411e+06	-398679	
20685	1.37509	-0.811385	-1.62858	-0.0214334	0.0364275	-0.00390374	-2.30662e+06	286107	-778190	
20714	1.37509	-0.811385	-1.62858	-0.0244089	0.0367966	-0.00490761	-2.30662e+06	286107	-778190	
20744	1.36792	-0.815114	-1.62568	-0.0256545	0.0369511	-0.00532783	-3.07654e+06	-1.6017e+06	1.24968e+06	
20775	1.3651	-0.820309	-1.62599	-0.0280542	0.0357017	-0.00435308	-1.21492e+06	-2.23652e+06	-133502	
20805	1.35883	-0.823835	-1.62959	-0.0291112	0.033756	-0.00446923	-2.70825e+06	-1.52222e+06	-1.55596e+06	
20834	1.34998	-0.827929	-1.63181	-0.0314673	0.0324316	-0.00582291	-3.83152e+06	-1.77222e+06	-961621	
20865	1.33942	-0.83147	-1.63398	-0.0349157	0.0308366	-0.00668837	-4.58103e+06	-1.5369e+06	-942792	
20895	1.33569	-0.837308	-1.63609	-0.0384889	0.0296379	-0.00742375	-1.62385e+06	-2.54237e+06	-916148	
20924	1.32731	-0.839991	-1.63902	-0.0397068	0.0277311	-0.00811086	-3.66004e+06	-1.17202e+06	-1.28228e+06	
20955	1.32112	-0.847349	-1.64276	-0.041244	0.0272388	-0.00864941	-2.71569e+06	-3.22685e+06	-1.63749e+06	
20985	1.31133	-0.854091	-1.64138	-0.0423031	0.0259804	-0.00928803	-4.3069e+06	-2.96528e+06	606236	
21015	1.30191	-0.857839	-1.64349	-0.044112	0.0247349	-0.00903342	-4.15254e+06	-1.6527e+06	-929878	
21044	1.29481	-0.8676	-1.64606	-0.0463544	0.0238425	-0.00953555	-3.14029e+06	-4.31534e+06	-1.13954e+06	
21075	1.29054	-0.877477	-1.65101	-0.0472023	0.0226773	-0.00984322	-1.89364e+06	-4.38348e+06	-2.19392e+06	
21105	1.27616	-0.882462	-1.65451	-0.0481112	0.0205733	-0.0108963	-6.39925e+06	-2.21678e+06	-1.55528e+06	
21134	1.27006	-0.891704	-1.65769	-0.0488791	0.0203073	-0.0110829	-2.71949e+06	-4.12654e+06	-1.42162e+06	
21165	1.27006	-0.891704	-1.65769	-0.0517346	0.0159744	-0.0125756	-2.71949e+06	-4.12654e+06	-1.42162e+06	
21195	1.26034	-0.895449	-1.66435	-0.0541821	0.0122605	-0.0138551	-4.35436e+06	-1.67752e+06	-2.98343e+06	
21224	1.26034	-0.895449	-1.66435	-0.0618894	0.00929131	-0.0191358	-4.35436e+06	-1.67752e+06	-2.98343e+06	
21285	1.23588	-0.914848	-1.66415	-0.132838	0.103023	2.45257e-10	-4.34831e+06	-2.58239e+06	1.4217e+06	
21315	1.22577	-0.917592	-1.66602	-0.135186	0.101629	0.000767721	-4.58821e+06	-1.24477e+06	-848070	
21344	1.21513	-0.923315	-1.66449	-0.13725	0.101069	0.000386089	-4.84192e+06	-2.60341e+06	695722	
21375	1.20235	-0.926995	-1.66309	-0.139574	0.0998192	0.000720036	-5.82743e+06	-1.67884e+06	637790	
21404	1.19385	-0.931159	-1.66023	-0.142197	0.0990637	0.00100704	-3.88845e+06	-1.90498e+06	1.31107e+06	
21435	1.18816	-0.940175	-1.65667	-0.143713	0.0983208	0.00151836	-2.61092e+06	-4.13751e+06	1.63248e+06	
21465	1.18241	-0.944761	-1.65642	-0.14481	0.096583	0.002204	-2.64744e+06	-2.11056e+06	114644	
21495	1.18241	-0.944761	-1.65642	-0.148305	0.0937971	0.00235533	-2.64744e+06	-2.11056e+06	114644	
21524	1.17622	-0.947021	-1.64086	-0.149893	0.0925307	0.00242411	-2.86206e+06	-1.04479e+06	7.19629e+06	
21555	1.16862	-0.943039	-1.63903	-0.152383	0.0916218	0.00868489	-3.52096e+06	1.84519e+06	845553	
21585	1.15978	-0.946175	-1.63456	-0.155552	0.0932824	0.00944589	-4.10759e+06	-1.4573e+06	2.07936e+06	
21614	1.15948	-0.952296	-1.63008	-0.159125	0.0920146	0.0112549	-140935	-2.85176e+06	2.08772e+06	
21674	1.14806	-0.9569	-1.62322	-0.0493636	0.0268251	5.24338e-10	-3.25372e+06	36854.4	2.06217e+06	
21704	1.14806	-0.9569	-1.62322	-0.0553179	0.0268925	0.00377377	-3.25372e+06	36854.4	2.06217e+06	
21765	1.13388	-0.951595	-1.6098	-0.0294429	0.00237289	1.0158e-10	-3.59942e+06	3.84188e+06	651612	
21794	1.13171	-0.953323	-1.60269	-0.0306307	0.00364071	0.000215032	-1.02951e+06	-820259	3.37345e+06	
21824	1.1288	-0.953411	-1.59986	-0.0309704	0.00337003	0.00132827	-1.38459e+06	-41902.4	1.34485e+06	
21855	1.12516	-0.955298	-1.59101	-0.0314273	0.0033562	0.00177207	-1.73629e+06	-900192	4.22256e+06	
21884	1.12516	-0.955298	-1.59101	-0.0335109	0.00227597	0.00683914	-1.73629e+06	-900192	4.22256e+06	
21914	1.12235	-0.954154	-1.58728	-0.0346048	0.00170885	0.00949935	-1.34405e+06	548412	1.79062e+06	
21945	1.12052	-0.961364	-1.58301	-0.0354112	0.00203789	0.0105737	-882132	-3.46617e+06	2.05279e+06	
21975	1.12235	-0.968814	-1.57529	-0.0361257	-0.000769707	0.0122365	880251	-3.5888e+06	3.71647e+06	
22004	1.12194	-0.964	-1.56887	-0.0354127	-0.00367664	0.0152468	-198136	2.32538e+06	3.10195e+06	
22035	1.11754	-0.962538	-1.56306	-0.0354662	-0.00304878	0.0160843	-2.13291e+06	709114	2.81976e+06	
22064	1.11263	-0.964251	-1.55387	-0.036426	-0.00272968	0.0173532	-2.3869e+06	-832735	4.467e+06	
22094	1.11232	-0.961816	-1.54851	-0.0372853	-0.00302947	0.0189614	-151170	1.1876e+06	2.61504e+06	
22125	1.11114	-0.962467	-1.54179	-0.0373397	-0.00260193	0.0199028	-577633	-318563	3.28261e+06	
22155	1.11144	-0.963411	-1.53382	-0.0374437	-0.00265927	0.0204936	147191	-462844	3.9111e+06	
22184	1.11144	-0.963411	-1.53382	-0.0372891	-0.00314526	0.0246003	147191	-462844	3.9111e+06	
22215	1.10318	-0.961048	-1.52114	-0.0372317	-0.00332577	0.0261256	-4.06877e+06	1.16447e+06	6.25268e+06	
22245	1.10383	-0.955789	-1.51157	-0.0395509	-0.00266202	0.0296897	316278	2.59776e+06	4.7229e+06	
22275	1.10117	-0.955815	-1.5023	-0.0393137	-0.000713704	0.0332318	-1.31665e+06	-12836	4.58938e+06	
22305	1.10095	-0.958952	-1.49531	-0.0403407	-0.000723716	0.0368115	-107874	-1.55687e+06	3.47232e+06	
22334	1.09966	-0.965133	-1.48981	-0.0404249	-0.00193808	0.03952	-638958	-3.07599e+06	2.73781e+06	
22365	1.10697	-0.974868	-1.48472	-0.0409616	-0.00452191	0.0418197	3.64354e+06	-4.85735e+06	2.53572e+06	
22394	1.10247	-0.978056	-1.48526	-0.037901	-0.00860208	0.0439497	-2.25115e+06	-1.59492e+06	-267603	
22425	1.10295	-0.977181	-1.46946	-0.039792	-0.00994182	0.0437249	242744	438846	7.92553e+06	
22454	1.10254	-0.980122	-1.46849	-0.0395881	-0.00957319	0.0503824	-204516	-1.47875e+06	489819	
22485	1.10459	-0.986201	-1.46546	-0.039631	-0.00988372	0.0504852	1.03343e+06	-3.07152e+06	1.52974e+06	
22514	1.10804	-0.989153	-1.46148	-0.039414	-0.0105287	0.0508065	1.74651e+06	-1.49545e+06	2.01437e+06	
22545	1.10917	-0.990286	-1.46223	-0.0386805	-0.0111568	0.0516525	575092	-575395	-379966	
22574	1.11383	-0.99799	-1.4617	-0.0384734	-0.011364	0.0515157	2.37046e+06	-3.92143e+06	268749	
22605	1.11969	-1.00433	-1.4628	-0.0375489	-0.0128933	0.0516205	2.99304e+06	-3.23478e+06	-560908	
22634	1.12598	-1.00881	-1.465	-0.0363817	-0.0141549	0.0514018	3.21599e+06	-2.29175e+06	-1.12698e+06	
22665	1.12598	-1.00881	-1.465	-0.0321366	-0.01718	0.0499142	3.21599e+06	-2.29175e+06	-1.12698e+06	
22694	1.12573	-1.00766	-1.46765	-0.0314612	-0.0176613	0.0496775	-125015	588836	-1.3642e+06	
22725	1.12903	-1.00794	-1.46819	-0.03151	-0.0174316	0.0491455	1.70103e+06	-143469	-275409	
22754	1.13673	-1.01498	-1.46614	-0.0306424	-0.0175048	0.049005	3.98169e+06	-3.64031e+06	1.06084e+06	
22785	1.14542	-1.02673	-1.4678	-0.0275367	-0.0203442	0.0498325	4.49943e+06	-6.08305e+06	-859597	
22814	1.15202	-1.02741	-1.46814	-0.0238922	-0.0252715	0.0491362	3.42697e+06	-356732	-176567	
22845	1.16346	-1.03432	-1.46815	-0.0213219	-0.0255391	0.0490038	5.95597e+06	-3.5947e+06	-4888.68	
22875	1.16961	-1.03938	-1.47052	-0.0195352	-0.0266175	0.0490023	3.21968e+06	-2.64778e+06	-1.24242e+06	
22905	1.18545	-1.04763	-1.477	-0.0184727	-0.0274912	0.0485923	8.29981e+06	-4.3237e+06	-3.39635e+06	
22934	1.18805	-1.05205	-1.47641	-0.0154847	-0.0290478	0.0473696	1.36818e+06	-2.32152e+06	313174	
22965	1.20512	-1.06294	-1.47869	-0.014869	-0.0300925	0.0475105	8.99012e+06	-5.73736e+06	-1.20145e+06	
22994	1.21696	-1.07162	-1.47829	-0.0129811	-0.0312973	0.0472582	6.257e+06	-4.58559e+06	211569	
23025	1.21696	-1.07162	-1.47829	-0.00584814	-0.0365249	0.0474994	6.257e+06	-4.58559e+06	211569	
23054	1.2287	-1.08024	-1.4862	-0.000592265	-0.0403768	0.0476771	6.22026e+06	-4.56885e+06	-4.19811e+06	
23085	1.23563	-1.08701	-1.49191	0.00313989	-0.0431181	0.0451583	3.68779e+06	-3.60392e+06	-3.03799e+06	
23114	1.25293	-1.09764	-1.4963	0.00590574	-0.045821	0.0428798	9.22137e+06	-5.66491e+06	-2.33962e+06	
23145	1.26461	-1.10637	-1.50267	0.0125451	-0.0498998	0.0411953	6.24724e+06	-4.66932e+06	-3.40469e+06	
23174	1.26461	-1.10637	-1.50267	0.0224782	-0.057324	0.0357818	6.24724e+06	-4.66932e+06	-3.40469e+06	
23205	1.2776	-1.11625	-1.50682	0.0275385	-0.0611061	0.033024	6.97965e+06	-5.30648e+06	-2.22657e+06	
23264	1.31048	-1.14007	-1.52376	0.148254	0.104306	7.87986e-11	5.56638e+06	-5.54711e+06	-3.41461e+06	
23295	1.32344	-1.14789	-1.53105	0.150257	0.102309	-0.00122926	7.02437e+06	-4.2396e+06	-3.94855e+06	
23324	1.33605	-1.15681	-1.53556	0.151943	0.101292	-0.00217691	6.85879e+06	-4.85178e+06	-2.45252e+06	
23355	1.34855	-1.1667	-1.54355	0.154001	0.099836	-0.00291267	6.81195e+06	-5.387e+06	-4.35682e+06	
23384	1.35962	-1.17247	-1.54796	0.156862	0.0975735	-0.00474253	6.04347e+06	-3.15476e+06	-2.40782e+06	
23415	1.35962	-1.17247	-1.54796	0.165021	0.0933146	-0.00799309	6.04347e+06	-3.15476e+06	-2.40782e+06	
23444	1.37217	-1.17857	-1.55343	0.168284	0.091611	-0.00929331	6.8867e+06	-3.34718e+06	-2.99874e+06	
23475	1.37155	-1.1795	-1.55716	0.173656	0.0890002	-0.0116323	-338063	-512830	-2.05181e+06	
23504	1.37607	-1.18143	-1.55967	0.173443	0.0886771	-0.012925	2.4895e+06	-1.06438e+06	-1.38584e+06	
23535	1.38592	-1.1914	-1.56672	0.17531	0.0878788	-0.0139644	5.44847e+06	-5.51119e+06	-3.89604e+06	
23564	1.3973	-1.19672	-1.5737	0.178906	0.0842414	-0.0165357	6.30685e+06	-2.94395e+06	-3.86709e+06	
23595	1.40229	-1.20018	-1.58137	0.180987	0.0832699	-0.0178119	2.77104e+06	-1.92773e+06	-4.26829e+06	
23624	1.40923	-1.20604	-1.58808	0.182234	0.0824025	-0.0197326	3.87095e+06	-3.26397e+06	-3.7383e+06	
23655	1.38759	-1.19003	-1.56309	0.182466	0.0822066	-0.0199569	-1.21057e+07	8.95521e+06	1.39793e+07	
23684	1.39167	-1.19612	-1.56905	0.181014	0.0832812	-0.0182794	2.28387e+06	-3.41377e+06	-3.34203e+06	
23715	1.39981	-1.20873	-1.57528	0.181699	0.0822571	-0.019282	4.57839e+06	-7.08726e+06	-3.49722e+06	
23744	1.40138	-1.2128	-1.58139	0.18321	0.0799183	-0.0204361	881533	-2.2897e+06	-3.44682e+06	
23775	1.4033	-1.22306	-1.5859	0.183474	0.0792314	-0.0214701	1.08412e+06	-5.79832e+06	-2.54452e+06	
23804	1.4033	-1.22306	-1.5859	0.184743	0.0724474	-0.0244472	1.08412e+06	-5.79832e+06	-2.54452e+06	
23835	1.40446	-1.22559	-1.59286	0.185426	0.0687944	-0.0260503	656946	-1.43093e+06	-3.94767e+06	
23865	1.40683	-1.22933	-1.6014	0.185879	0.0678071	-0.0287742	1.35137e+06	-2.12756e+06	-4.85254e+06	
23895	1.40543	-1.2313	-1.60504	0.186852	0.0662752	-0.032268	-801810	-1.12014e+06	-2.07402e+06	
23924	1.39953	-1.23332	-1.60898	0.186371	0.0656032	-0.0335124	-3.36878e+06	-1.15883e+06	-2.25082e+06	
23955	1.39336	-1.2401	-1.60998	0.183541	0.0646297	-0.0354031	-3.53377e+06	-3.88068e+06	-572426	
23984	1.38647	-1.24143	-1.61601	0.180891	0.0617192	-0.0358324	-3.95526e+06	-764450	-3.46582e+06	
24015	1.38358	-1.24751	-1.61812	0.18006	0.0615587	-0.0365602	-1.6664e+06	-3.50040e+06	-1.21282e+06	
24044	1.37779	-1.25257	-1.6202	0.17971	0.0608236	-0.0368149	-3.34223e+06	-2.9226e+06	-1.20207e+06	
24104	1.3631	-1.27037	-1.62271	-0.12917	0.0758361	3.22961e-10	-5.63218e+06	-5.56038e+06	-145315	
24135	1.3631	-1.27037	-1.62271	-0.136267	0.06883	-0.000183097	-5.63218e+06	-5.56038e+06	-145315	
24165	1.35338	-1.27396	-1.62552	-0.137618	0.0674956	-0.000217973	-5.67214e+06	-2.09915e+06	-1.6348e+06	
24194	1.34269	-1.28151	-1.62402	-0.140001	0.0666139	-0.000904588	-6.25116e+06	-4.414e+06	873495	
24225	1.33017	-1.28409	-1.62713	-0.143939	0.0638331	-0.000354286	-7.3319e+06	-1.51205e+06	-1.82117e+06	
24254	1.31418	-1.2906	-1.63207	-0.147898	0.0630166	-0.00133772	-9.39357e+06	-3.8223e+06	-2.90371e+06	
24285	1.29984	-1.2938	-1.63162	-0.155225	0.0600352	-0.00360261	-8.43802e+06	-1.88286e+06	269306	
24314	1.2783	-1.29149	-1.63101	-0.1613	0.0586795	-0.00340871	-1.27118e+07	1.36501e+06	359670	
24345	1.26114	-1.29569	-1.63037	-0.162826	0.0588433	-0.00336555	-1.0167e+07	-2.48881e+06	378222	
24374	1.24424	-1.29584	-1.62701	-0.165266	0.058246	-0.00327478	-1.00298e+07	-90414.8	1.99496e+06	
24405	1.22441	-1.30091	-1.62466	-0.168275	0.0582189	-0.00267629	-1.18024e+07	-3.01829e+06	1.39687e+06	
24434	1.20567	-1.30589	-1.62093	-0.170045	0.0577661	-0.00246675	-1.11838e+07	-2.97326e+06	2.22539e+06	
24465	1.18252	-1.30991	-1.61449	-0.1734	0.0568742	-0.00179914	-1.38458e+07	-2.40123e+06	3.8515e+06	
24525	1.12167	-1.29787	-1.58823	-0.346393	0.0488552	2.5187e-10	-2.39287e+07	6.11338e+06	1.63332e+07	
24554	1.09898	-1.3013	-1.58364	-0.3507	0.0499557	0.00293998	-1.36729e+07	-2.06538e+06	2.76739e+06	
24585	1.09898	-1.3013	-1.58364	-0.365877	0.0476631	0.00601178	-1.36729e+07	-2.06538e+06	2.76739e+06	
24614	1.07607	-1.30633	-1.58043	-0.376132	0.0461141	0.00808733	-1.38557e+07	-3.04288e+06	1.93858e+06	
24645	1.07607	-1.30633	-1.58043	-0.399409	0.041002	0.0113441	-1.38557e+07	-3.04288e+06	1.93858e+06	
24674	1.05098	-1.30505	-1.57632	-0.406891	0.0393589	0.012391	-1.52517e+07	782037	2.4992e+06	
24705	0.999456	-1.3032	-1.56432	-0.407806	0.0394058	0.0125409	-1.54596e+07	-3.6123e+06	3.1239e+06	
24734	0.974061	-1.30362	-1.55967	-0.411517	0.0385388	0.0132907	-1.5526e+07	-254357	2.8473e+06	
24765	0.944125	-1.2982	-1.55364	-0.414311	0.0384931	0.0138032	-1.83513e+07	3.32077e+06	3.69738e+06	
24794	0.913396	-1.29889	-1.54774	-0.415963	0.0387919	0.0141359	-1.88854e+07	-421367	3.62343e+06	
24825	0.886322	-1.29987	-1.54152	-0.421629	0.0386655	0.015223	-1.66721e+07	-608546	3.82745e+06	
24854	0.856632	-1.30101	-1.54018	-0.424629	0.038556	0.0159119	-1.83312e+07	-701156	830237	
24885	0.823638	-1.29494	-1.54223	-0.427929	0.0384298	0.0160614	-2.0422e+07	3.75941e+06	-1.26654e+06	
24914	0.823638	-1.29494	-1.54223	-0.449372	0.0423772	0.0147315	-2.0422e+07	3.75941e+06	-1.26654e+06	
24945	0.802332	-1.30284	-1.5374	-0.4604	0.0444072	0.0140475	-1.32389e+07	-4.91278e+06	2.99804e+06	
24974	0.782335	-1.30357	-1.53726	-0.469535	0.0410174	0.0161162	-1.24491e+07	-451036	90633.9	
25005	0.736538	-1.27726	-1.51203	-0.477004	0.0407468	0.0161706	-2.85888e+07	1.64249e+07	1.57443e+07	
25034	0.711672	-1.27739	-1.51161	-0.497588	0.0525727	0.0275065	-1.55536e+07	-85097.8	264800	
25065	0.679368	-1.27486	-1.50868	-0.510187	0.0525038	0.0277209	-2.02513e+07	1.58433e+06	1.83991e+06	
25094	0.653064	-1.26767	-1.50939	-0.522337	0.0534544	0.0288249	-1.65378e+07	4.52243e+06	-447062	
25155	0.597816	-1.26392	-1.50644	-0.39584	-0.0901271	1.57509e-10	-1.74073e+07	357200	1.08743e+06	
25184	0.568907	-1.25435	-1.50975	-0.396884	-0.0901057	6.5246e-05	-1.83319e+07	6.06939e+06	-2.09548e+06	
25215	0.549256	-1.25389	-1.50576	-0.402384	-0.0882848	-0.000563398	-1.24841e+07	289110	2.53373e+06	
25244	0.518108	-1.24461	-1.50208	-0.405754	-0.0882068	0.000120709	-1.98355e+07	5.91349e+06	2.3422e+06	
25275	0.498958	-1.24394	-1.50052	-0.40992	-0.0869649	0.000612572	-1.22265e+07	423610	1.0002e+06	
25304	0.477296	-1.24047	-1.5008	-0.411754	-0.0869014	0.000762603	-1.38641e+07	2.22358e+06	-184261	
25335	0.477296	-1.24047	-1.5008	-0.426727	-0.0844999	0.000563601	-1.38641e+07	2.22358e+06	-184261	
25365	0.452172	-1.23825	-1.50353	-0.436709	-0.082899	0.000430933	-1.61339e+07	1.42287e+06	-1.75151e+06	
25395	0.430732	-1.23296	-1.50498	-0.444937	-0.0821733	-0.00046234	-1.38085e+07	3.41154e+06	-935514	
25424	0.411913	-1.22987	-1.50776	-0.452394	-0.0803311	-0.000967517	-1.21469e+07	1.99611e+06	-1.7909e+06	
25455	0.38715	-1.22606	-1.50871	-0.460775	-0.0789538	-0.00220324	-1.60166e+07	2.46122e+06	-614125	
25515	0.351011	-1.21534	-1.4964	-0.280634	-0.0450581	9.60343e-11	-1.23531e+07	3.26409e+06	-549922	
25605	0.315473	-1.20243	-1.50344	-0.245978	-0.0297154	4.47146e-10	-1.17713e+07	2.78625e+06	-2.2361e+06	
25665	0.286694	-1.19917	-1.50502	-0.229691	-0.0256552	1.89898e-10	-1.20183e+07	72467.1	217401	
25695	0.269127	-1.19426	-1.50525	-0.23582	-0.0256182	0.000110875	-1.15834e+07	3.23815e+06	-154256	
25724	0.251613	-1.19422	-1.50758	-0.243812	-0.0233839	4.43819e-06	-1.15685e+07	26083.5	-1.54129e+06	
25755	0.23657	-1.18766	-1.50914	-0.251448	-0.0233667	-0.00101281	-9.96153e+06	4.34598e+06	-1.02749e+06	
25784	0.221947	-1.19183	-1.50614	-0.256528	-0.0211502	-0.00153683	-9.70865e+06	-2.7667e+06	1.99036e+06	
25815	0.216471	-1.18603	-1.51178	-0.262936	-0.0229763	-0.000223191	-3.6434e+06	3.85518e+06	-3.75045e+06	
25844	0.207558	-1.18601	-1.51221	-0.265012	-0.0207788	-0.00236095	-5.94418e+06	15155.5	-292079	
25875	0.202047	-1.18308	-1.51273	-0.268757	-0.0207692	-0.00254496	-3.68331e+06	1.95926e+06	-343633	
26175	0.197546	-1.18455	-1.51228	-0.0281001	-0.283874	-0.00850355	-3.01649e+06	-984352	299574	
26204	0.197546	-1.18455	-1.51228	-0.0567869	-0.293235	-0.0056546	-3.01649e+06	-984352	299574	
26235	0.197546	-1.18455	-1.51228	-0.088279	-0.303512	-0.00252704	-3.01649e+06	-984352	299574	
26264	0.197546	-1.18455	-1.51228	-0.122396	-0.314645	0.000861148	-3.01649e+06	-984352	299574	
26295	0.197546	-1.18455	-1.51228	-0.159317	-0.326693	0.00452794	-3.01649e+06	-984352	299574	
26324	0.197546	-1.18455	-1.51228	-0.198864	-0.339598	0.00845536	-3.01649e+06	-984352	299574	
26355	0.197546	-1.18455	-1.51228	-0.241215	-0.353419	0.0126614	-3.01649e+06	-984352	299574	
26384	0.197546	-1.18455	-1.51228	-0.286191	-0.368095	0.017128	-3.01649e+06	-984352	299574	
26415	0.197546	-1.18455	-1.51228	-0.333972	-0.383687	0.0218733	-3.01649e+06	-984352	299574	
26445	0.197546	-1.18455	-1.51228	-0.384468	-0.400165	0.0268882	-3.01649e+06	-984352	299574	
26474	0.197546	-1.18455	-1.51228	-0.437589	-0.4175	0.0321637	-3.01649e+06	-984352	299574	
26505	0.197546	-1.18455	-1.51228	-0.493514	-0.43575	0.0377178	-3.01649e+06	-984352	299574	
26534	0.197546	-1.18455	-1.51228	-0.552064	-0.454856	0.0435325	-3.01649e+06	-984352	299574	
26565	0.197546	-1.18455	-1.51228	-0.61342	-0.474878	0.0496259	-3.01649e+06	-984352	299574	
26595	0.197546	-1.18455	-1.51228	-0.67749	-0.495785	0.0559888	-3.01649e+06	-984352	299574	
26625	0.197546	-1.18455	-1.51228	-0.744275	-0.517579	0.0626214	-3.01649e+06	-984352	299574	
26655	0.197546	-1.18455	-1.51228	-0.813775	-0.540258	0.0695236	-3.01649e+06	-984352	299574	
26685	0.197546	-1.18455	-1.51228	-0.88599	-0.563824	0.0766954	-3.01649e+06	-984352	299574	
26714	0.197546	-1.18455	-1.51228	-0.960829	-0.588246	0.0841279	-3.01649e+06	-984352	299574	
26745	0.197546	-1.18455	-1.51228	-1.03847	-0.613583	0.0918389	-3.01649e+06	-984352	299574	
26775	0.197546	-1.18455	-1.51228	-1.11883	-0.639806	0.0998196	-3.01649e+06	-984352	299574	
26805	0.197546	-1.18455	-1.51228	-1.20191	-0.666915	0.10807	-3.01649e+06	-984352	299574	
26835	0.197546	-1.18455	-1.51228	-1.2877	-0.69491	0.11659	-3.01649e+06	-984352	299574	
26865	0.197546	-1.18455	-1.51228	-1.3762	-0.723791	0.125379	-3.01649e+06	-984352	299574	
26895	0.197546	-1.18455	-1.51228	-1.46742	-0.753558	0.134438	-3.01649e+06	-984352	299574	
26925	0.197546	-1.18455	-1.51228	-1.56135	-0.78421	0.143767	-3.01649e+06	-984352	299574	
26954	0.197546	-1.18455	-1.51228	-1.65791	-0.815719	0.153357	-3.01649e+06	-984352	299574	
26984	0.197546	-1.18455	-1.51228	-1.75718	-0.848114	0.163216	-3.01649e+06	-984352	299574	
27015	0.197546	-1.18455	-1.51228	-1.85926	-0.881425	0.173353	-3.01649e+06	-984352	299574	
27045	0.197546	-1.18455	-1.51228	-1.96405	-0.915621	0.18376	-3.01649e+06	-984352	299574	
27075	0.197546	-1.18455	-1.51228	-2.07156	-0.950704	0.194437	-3.01649e+06	-984352	299574	
27105	0.197546	-1.18455	-1.51228	-2.18178	-0.986672	0.205384	-3.01649e+06	-984352	299574	
27134	0.197546	-1.18455	-1.51228	-2.29463	-1.0235	0.216591	-3.01649e+06	-984352	299574	
27165	0.197546	-1.18455	-1.51228	-2.41028	-1.06124	0.228076	-3.01649e+06	-984352	299574	
27195	0.197546	-1.18455	-1.51228	-2.52865	-1.09986	0.239832	-3.01649e+06	-984352	299574	
27225	0.197546	-1.18455	-1.51228	-2.64973	-1.13937	0.251857	-3.01649e+06	-984352	299574	
27255	0.197546	-1.18455	-1.51228	-2.77344	-1.17974	0.264142	-3.01649e+06	-984352	299574	
27285	0.197546	-1.18455	-1.51228	-2.89995	-1.22103	0.276706	-3.01649e+06	-984352	299574	
27315	0.197546	-1.18455	-1.51228	-3.02918	-1.2632	0.28954	-3.01649e+06	-984352	299574	
27345	0.197546	-1.18455	-1.51228	-3.16112	-1.30625	0.302643	-3.01649e+06	-984352	299574	
27375	0.197546	-1.18455	-1.51228	-3.29577	-1.35019	0.316016	-3.01649e+06	-984352	299574	
27404	0.197546	-1.18455	-1.51228	-3.43305	-1.39499	0.32965	-3.01649e+06	-984352	299574	
27435	0.197546	-1.18455	-1.51228	-3.57314	-1.4407	0.343562	-3.01649e+06	-984352	299574	
27465	0.197546	-1.18455	-1.51228	-3.71594	-1.4873	0.357744	-3.01649e+06	-984352	299574	
27495	0.197546	-1.18455	-1.51228	-3.86146	-1.53479	0.372196	-3.01649e+06	-984352	299574	
27525	0.197546	-1.18455	-1.51228	-4.0096	-1.58313	0.386908	-3.01649e+06	-984352	299574	
27555	0.197546	-1.18455	-1.51228	-4.16054	-1.63239	0.401899	-3.01649e+06	-984352	299574	
27585	0.197546	-1.18455	-1.51228	-4.3142	-1.68253	0.417159	-3.01649e+06	-984352	299574	
27615	0.197546	-1.18455	-1.51228	-4.47058	-1.73356	0.432689	-3.01649e+06	-984352	299574	
27644	0.197546	-1.18455	-1.51228	-4.62958	-1.78544	0.448479	-3.01649e+06	-984352	299574	
27674	0.197546	-1.18455	-1.51228	-4.79129	-1.83821	0.46454	-3.01649e+06	-984352	299574	
27705	0.197546	-1.18455	-1.51228	-4.95572	-1.89187	0.480869	-3.01649e+06	-984352	299574	
27735	0.197546	-1.18455	-1.51228	-5.12295	-1.94644	0.497478	-3.01649e+06	-984352	299574	
27764	0.197546	-1.18455	-1.51228	-5.29281	-2.00187	0.514347	-3.01649e+06	-984352	299574	
27795	0.197546	-1.18455	-1.51228	-5.46547	-2.05822	0.531494	-3.01649e+06	-984352	299574	
27825	0.197546	-1.18455	-1.51228	-5.64085	-2.11545	0.548912	-3.01649e+06	-984352	299574	
27854	0.197546	-1.18455	-1.51228	-5.81886	-2.17353	0.56659	-3.01649e+06	-984352	299574	
27885	0.197546	-1.18455	-1.51228	-5.99957	-2.23251	0.584537	-3.01649e+06	-984352	299574	
27915	0.197546	-1.18455	-1.51228	-6.1831	-2.29239	0.602763	-3.01649e+06	-984352	299574	
27945	0.197546	-1.18455	-1.51228	-6.36934	-2.35317	0.621259	-3.01649e+06	-984352	299574	
27975	0.197546	-1.18455	-1.51228	-6.55829	-2.41483	0.640024	-3.01649e+06	-984352	299574	
28004	0.197546	-1.18455	-1.51228	-6.74987	-2.47734	0.65905	-3.01649e+06	-984352	299574	
28035	0.197546	-1.18455	-1.51228	-6.94425	-2.54078	0.678355	-3.01649e+06	-984352	299574	
28065	0.197546	-1.18455	-1.51228	-7.14135	-2.60509	0.697929	-3.01649e+06	-984352	299574	
28094	0.197546	-1.18455	-1.51228	-7.34107	-2.67027	0.717764	-3.01649e+06	-984352	299574	
28124	0.197546	-1.18455	-1.51228	-7.5435	-2.73633	0.737868	-3.01649e+06	-984352	299574	
28155	0.197546	-1.18455	-1.51228	-7.74875	-2.8033	0.758251	-3.01649e+06	-984352	299574	
28184	0.197546	-1.18455	-1.51228	-7.95661	-2.87113	0.778895	-3.01649e+06	-984352	299574	
28215	0.197546	-1.18455	-1.51228	-8.16728	-2.93988	0.799817	-3.01649e+06	-984352	299574	
28245	0.197546	-1.18455	-1.51228	-8.38067	-3.00951	0.821009	-3.01649e+06	-984352	299574	
28275	0.197546	-1.18455	-1.51228	-8.59677	-3.08003	0.842471	-3.01649e+06	-984352	299574	
28305	0.197545	-1.18455	-1.51228	-8.81559	-3.15144	0.864202	-3.01649e+06	-984352	299574	
28335	0.197545	-1.18455	-1.51228	-9.03712	-3.22373	0.886203	-3.01649e+06	-984352	299574	
28365	0.197545	-1.18455	-1.51228	-9.26137	-3.29691	0.908473	-3.01649e+06	-984352	299574	
28395	0.197545	-1.18455	-1.51228	-9.48833	-3.37097	0.931013	-3.01649e+06	-984352	299574	
28425	0.197545	-1.18455	-1.51228	-9.718	-3.44592	0.953823	-3.01649e+06	-984352	299574	
28455	0.197545	-1.18455	-1.51228	-9.95039	-3.52175	0.976902	-3.01649e+06	-984352	299574	
28485	0.197545	-1.18455	-1.51228	-10.1855	-3.59847	1.00025	-3.01649e+06	-984352	299574	
28515	0.197545	-1.18455	-1.51228	-10.4233	-3.67608	1.02387	-3.01649e+06	-984352	299574	
28544	0.197545	-1.18455	-1.51228	-10.6638	-3.75454	1.04775	-3.01649e+06	-984352	299574	
28575	0.197545	-1.18455	-1.51228	-10.9069	-3.83389	1.0719	-3.01649e+06	-984352	299574	
28605	0.197545	-1.18455	-1.51228	-11.1529	-3.91415	1.09632	-3.01649e+06	-984352	299574	
28635	0.197545	-1.18455	-1.51228	-11.4016	-3.9953	1.12102	-3.01649e+06	-984352	299574	
28665	0.197545	-1.18455	-1.51228	-11.653	-4.07734	1.14599	-3.01649e+06	-984352	299574	
28695	0.197545	-1.18455	-1.51228	-11.9071	-4.16026	1.17122	-3.01649e+06	-984352	299574	
28724	0.197545	-1.18455	-1.51228	-12.1638	-4.24404	1.19672	-3.01649e+06	-984352	299574	
28755	0.197545	-1.18455	-1.51228	-12.4233	-4.32873	1.2225	-3.01649e+06	-984352	299574	
28785	0.197545	-1.18455	-1.51228	-12.6856	-4.41431	1.24854	-3.01649e+06	-984352	299574	
28815	0.197545	-1.18455	-1.51228	-12.9506	-4.50078	1.27486	-3.01649e+06	-984352	299574	
28844	0.190252	-1.17853	-1.51547	-12.9523	-4.50134	1.27503	-6.0602e+06	4.99824e+06	-2.64695e+06	
28875	0.190252	-1.17853	-1.51547	-12.9614	-4.49384	1.27106	-6.0602e+06	4.99824e+06	-2.64695e+06	
28905	0.190252	-1.17853	-1.51547	-12.9757	-4.482	1.26478	-6.0602e+06	4.99824e+06	-2.64695e+06	
28935	0.190252	-1.17853	-1.51547	-12.9957	-4.4655	1.25605	-6.0602e+06	4.99824e+06	-2.64695e+06	
28964	0.190252	-1.17853	-1.51547	-13.021	-4.44466	1.24501	-6.0602e+06	4.99824e+06	-2.64695e+06	
28995	0.190252	-1.17853	-1.51547	-13.0519	-4.41917	1.23151	-6.0602e+06	4.99824e+06	-2.64695e+06	
29024	0.190252	-1.17853	-1.51547	-13.0881	-4.38933	1.21571	-6.0602e+06	4.99824e+06	-2.64695e+06	
29055	0.190252	-1.17853	-1.51547	-13.1299	-4.35484	1.19744	-6.0602e+06	4.99824e+06	-2.64695e+06	
29084	0.631087	-1.22474	-1.41387	-13.1337	-4.35169	1.19578	3.72355e+08	-3.90342e+07	8.58157e+07	
29115	0.631087	-1.22474	-1.41387	-12.5529	-4.41259	1.32965	3.72355e+08	-3.90342e+07	8.58157e+07	
29144	0.597321	-1.3365	-1.28538	-12.3965	-4.42898	1.36569	-2.86527e+07	-9.48346e+07	1.09031e+08	
29204	0.576171	-1.39845	-1.25276	-0.0212857	0.0789011	6.45389e-11	-669243	-6.99793e+06	-4.47021e+06	
29235	0.577951	-1.40561	-1.25563	-0.0215869	0.075752	-0.0020116	1.51986e+06	-6.11747e+06	-2.45485e+06	
29264	0.578024	-1.42026	-1.2607	-0.0206749	0.0720816	-0.00348451	62571.3	-1.25274e+07	-4.33106e+06	
29295	0.576641	-1.42896	-1.26858	-0.0206656	0.0702024	-0.00413417	1.1242e+06	-3.88281e+06	-5.05598e+06	
29324	0.572992	-1.43002	-1.27205	-0.0202946	0.0689211	-0.00580264	-3.13563e+06	-905488	-2.98535e+06	
29355	0.570858	-1.43493	-1.27494	-0.0217056	0.0685136	-0.00714604	-1.83692e+06	-4.22793e+06	-2.48327e+06	
29415	0.569392	-1.43759	-1.27681	-0.0490316	0.0497713	3.26286e-11	-1.26610e+06	-2.30022e+06	-1.61165e+06	
29444	0.564121	-1.43925	-1.28115	-0.0500572	0.0479081	-0.00130543	-4.56075e+06	-1.43236e+06	-3.76195e+06	
29504	0.560137	-1.45541	-1.29252	-0.064732	0.0465004	-7.96943e-11	-951158	-8.22855e+06	-6.045e+06	
29535	0.55781	-1.45809	-1.29918	-0.0655881	0.0390947	-0.0054405	-2.02599e+06	-2.33187e+06	-5.79556e+06	
29564	0.55781	-1.45809	-1.29918	-0.0691741	0.0349673	-0.0156986	-2.02599e+06	-2.33187e+06	-5.79556e+06	
33555	0.554017	-1.46308	-1.30359	0.00379716	-0.592432	-1.40785	-3.31588e+06	-4.35978e+06	-3.85617e+06	
33585	0.554017	-1.46308	-1.30359	-0.3958	-1.11783	-1.87256	-3.31588e+06	-4.35978e+06	-3.85617e+06	
33615	0.554017	-1.46308	-1.30359	-0.798481	-1.64728	-2.34085	-3.31588e+06	-4.35978e+06	-3.85617e+06	
33644	0.554017	-1.46308	-1.30359	-1.20405	-2.18053	-2.8125	-3.31588e+06	-4.35978e+06	-3.85617e+06	
33675	0.554017	-1.46308	-1.30359	-1.6127	-2.71782	-3.28773	-3.31588e+06	-4.35978e+06	-3.85617e+06	
33704	0.554017	-1.46308	-1.30359	-2.02423	-3.25892	-3.76632	-3.31588e+06	-4.35978e+06	-3.85617e+06	
33735	0.455346	-1.72656	-1.34484	-2.02473	-3.25957	-3.7669	-1.12259e+08	-2.99764e+08	-4.69313e+07	
33765	0.459195	-1.7304	-1.34843	-2.06514	-3.36749	-3.78379	4.38563e+06	-4.38058e+06	-4.08825e+06	
33795	0.459415	-1.72738	-1.34871	-2.06264	-3.36998	-3.78612	250913	3.45056e+06	-321461	
33824	0.46549	-1.7285	-1.35967	-2.06262	-3.36967	-3.78615	2.88139e+06	-751848	-3.71561e+06	
33855	0.468791	-1.72916	-1.36127	-2.06175	-3.3699	-3.78727	3.78130e+06	-751891	-1.82349e+06	
33884	0.467474	-1.72599	-1.36556	-2.06028	-3.37019	-3.78798	-1.51131e+06	3.62813e+06	-4.92942e+06	
33915	0.47037	-1.72787	-1.36705	-2.06051	-3.36965	-3.78872	3.32969e+06	-2.15674e+06	-1.71038e+06	
33975	0.476111	-1.73199	-1.37073	0.0379631	0.02085	5.84389e-10	6.61329e+06	-4.75138e+06	-4.23434e+06	
34004	0.482115	-1.73536	-1.38087	0.0433199	0.0170014	-0.00342981	6.93216e+06	-3.89050e+06	-1.1707e+07	
34035	0.481002	-1.72999	-1.38251	0.048727	0.0139668	-0.0125612	-1.28805e+06	6.21213e+06	-1.90531e+06	
34064	0.486403	-1.73311	-1.38973	0.047761	0.0186259	-0.0139902	6.25879e+06	-3.61431e+06	-8.36399e+06	
34095	0.489524	-1.73705	-1.39623	0.0522673	0.0160236	-0.0200123	3.62185e+06	-4.56886e+06	-7.53958e+06	
34124	0.491769	-1.73986	-1.40294	0.0540058	0.0138305	-0.0236313	2.61218e+06	-3.27361e+06	-7.80767e+06	
34155	0.495425	-1.73231	-1.41268	0.0547894	0.0128484	-0.0259736	4.26255e+06	8.80775e+06	-1.1359e+07	
34184	0.495425	-1.73231	-1.41268	0.0597766	0.0231535	-0.0392636	4.26255e+06	8.80775e+06	-1.1359e+07	
34215	0.495767	-1.7179	-1.4192	0.0601602	0.0239462	-0.0402859	3.61766e+06	4.31077e+06	-4.00974e+06	
34244	0.500879	-1.71478	-1.42485	0.0609199	0.0248515	-0.0411279	5.99214e+06	3.66155e+06	-6.63334e+06	
34275	0.507323	-1.71326	-1.42805	0.0630771	0.0261696	-0.043516	7.5647e+06	1.78624e+06	-3.75073e+06	
34304	0.512289	-1.70983	-1.42878	0.0646657	0.0265447	-0.0443036	5.84164e+06	4.03547e+06	-853964	
34335	0.51408	-1.69646	-1.43386	0.0662429	0.0276343	-0.0445342	2.11025e+06	1.57471e+07	-5.98488e+06	
34364	0.51408	-1.69646	-1.43386	0.0686486	0.045586	-0.0513569	2.11025e+06	1.57471e+07	-5.98488e+06	
34395	0.512412	-1.6787	-1.42912	0.0702946	0.0578688	-0.0560251	-1.97099e+06	2.09805e+07	5.59575e+06	
34424	0.517407	-1.66677	-1.42921	0.0689938	0.0717159	-0.0523319	5.91155e+06	1.41193e+07	-104226	
34455	0.523561	-1.65896	-1.43056	0.0725407	0.0801875	-0.0523945	7.29779e+06	9.25891e+06	-1.60279e+06	
34484	0.529932	-1.64948	-1.42669	0.0780141	0.0871317	-0.0535966	7.56484e+06	1.1258e+07	4.59619e+06	
34515	0.535575	-1.63899	-1.42659	0.0839146	0.0959129	-0.0500115	6.71216e+06	1.24852e+07	113793	
34544	0.542591	-1.62487	-1.42497	0.0855255	0.0989093	-0.0499842	8.36822e+06	1.68369e+07	1.93496e+06	
34575	0.547401	-1.6057	-1.42424	0.0887892	0.105476	-0.0492296	5.74639e+06	2.29005e+07	872018	
34604	0.548291	-1.57829	-1.40082	0.0906855	0.113033	-0.0489418	1.06443e+06	3.28022e+07	2.80212e+07	
34635	0.55551	-1.56259	-1.40018	0.0910367	0.123858	-0.0396949	8.65382e+06	1.88213e+07	771539	
34664	0.55551	-1.56259	-1.40018	0.101421	0.146443	-0.038769	8.65382e+06	1.88213e+07	771539	
34695	0.559715	-1.54479	-1.39643	0.10246	0.148702	-0.0386764	5.06079e+06	2.14241e+07	4.51518e+06	
34724	0.570971	-1.52207	-1.39654	0.10413	0.155772	-0.0371864	1.35638e+07	2.73732e+07	-136284	
34755	0.576864	-1.50662	-1.39198	0.111861	0.171374	-0.0372641	7.10976e+06	1.86412e+07	5.49762e+06	
34784	0.586157	-1.48703	-1.38961	0.115274	0.180322	-0.0346252	1.1234e+07	2.36803e+07	2.86961e+06	
34815	0.592236	-1.46581	-1.38914	0.123699	0.198082	-0.032473	7.35714e+06	2.56819e+07	572448	
34845	0.596135	-1.44056	-1.38319	0.128114	0.213492	-0.0321296	4.72949e+06	3.06289e+07	7.21157e+06	
34874	0.603144	-1.41917	-1.38083	0.131235	0.233707	-0.0273699	8.51359e+06	2.5971e+07	2.8672e+06	
34905	0.608201	-1.398	-1.38171	0.13711	0.251627	-0.0253916	6.153e+06	2.57595e+07	-1.06701e+06	
34934	0.61508	-1.37296	-1.37752	0.137848	0.254718	-0.0255196	8.3928e+06	3.05544e+07	5.1154e+06	
34965	0.624962	-1.35067	-1.37848	0.140114	0.262967	-0.0241384	1.2075e+07	2.7244e+07	-1.17861e+06	
34994	0.630348	-1.32326	-1.38138	0.140838	0.264602	-0.0242092	6.59482e+06	3.35604e+07	-3.55205e+06	
35025	0.640761	-1.29545	-1.38036	0.142223	0.27165	-0.0249551	1.27694e+07	3.41034e+07	1.24675e+06	
35054	0.650276	-1.27148	-1.37933	0.144139	0.276765	-0.0247681	1.16877e+07	2.94397e+07	1.27568e+06	
35085	0.650276	-1.27148	-1.37933	0.156761	0.30856	-0.0233903	1.16877e+07	2.94397e+07	1.27568e+06	
35114	0.663532	-1.24758	-1.38116	0.160618	0.318275	-0.0229694	1.63346e+07	2.945e+07	-2.25994e+06	
35145	0.6706	-1.2149	-1.38254	0.169929	0.335062	-0.0242575	8.72093e+06	4.03281e+07	-1.69809e+06	
35174	0.680216	-1.18713	-1.3852	0.171237	0.341111	-0.0245122	1.1894e+07	3.43389e+07	-3.29245e+06	
35205	0.690904	-1.15076	-1.39181	0.174805	0.351413	-0.0255	1.32389e+07	4.50484e+07	-8.19383e+06	
35235	0.705426	-1.11843	-1.39649	0.180366	0.370333	-0.0289414	1.80145e+07	4.01148e+07	-5.80841e+06	
35264	0.721049	-1.08557	-1.39998	0.189553	0.390791	-0.0319037	1.94096e+07	4.08242e+07	-4.33303e+06	
35295	0.733479	-1.05158	-1.4063	0.202364	0.417735	-0.0347635	1.54657e+07	4.22919e+07	-7.86551e+06	
35325	0.751592	-1.02489	-1.41105	0.207931	0.43296	-0.0375951	2.25865e+07	3.32731e+07	-5.91758e+06	
35385	0.78065	-0.947981	-1.42658	0.289876	-0.514947	1.05025e-10	1.52462e+07	4.89709e+07	-9.80635e+06	
35444	0.798727	-0.918035	-1.4296	0.323687	-0.528559	3.54389e-10	2.26696e+07	3.75547e+07	-3.78865e+06	
35475	0.814627	-0.879866	-1.43578	0.338649	-0.503773	-0.00250051	1.9985e+07	4.79753e+07	-7.76413e+06	
35504	0.829912	-0.841282	-1.44254	0.354837	-0.464913	-0.00878945	1.92378e+07	4.85617e+07	-8.50983e+06	
35535	0.844634	-0.79353	-1.44621	0.36638	-0.435776	-0.0138954	1.85689e+07	6.02308e+07	-4.62828e+06	
35565	0.862064	-0.756194	-1.45181	0.379749	-0.392409	-0.0172277	2.20176e+07	4.71609e+07	-7.07748e+06	
35595	0.878087	-0.715547	-1.45623	0.394941	-0.359868	-0.0221112	2.02744e+07	5.14344e+07	-5.59026e+06	
35624	0.897744	-0.678658	-1.46507	0.406498	-0.330551	-0.0252976	2.49191e+07	4.67638e+07	-1.12068e+07	
35654	0.897744	-0.678658	-1.46507	0.443129	-0.261808	-0.0417716	2.49191e+07	4.67638e+07	-1.12068e+07	
35685	0.897744	-0.678658	-1.46507	0.502935	-0.149575	-0.0686678	2.49191e+07	4.67638e+07	-1.12068e+07	
35745	0.950377	-0.558216	-1.47917	0.294614	-0.602071	2.46954e-10	1.81425e+07	5.30871e+07	-5.53924e+06	
35774	0.960982	-0.51837	-1.4809	0.302234	-0.579774	-0.00232648	1.35616e+07	5.09534e+07	-2.21594e+06	
35805	0.975014	-0.476173	-1.48519	0.310778	-0.547674	-0.00372252	1.79677e+07	5.40335e+07	-5.49338e+06	
35834	0.988493	-0.431962	-1.48586	0.324792	-0.505528	-0.00800736	1.72829e+07	5.66876e+07	-866287	
35865	1.00566	-0.390608	-1.4914	0.339828	-0.456209	-0.00876103	2.20415e+07	5.31077e+07	-7.1059e+06	
35894	1.01758	-0.351127	-1.49403	0.349086	-0.433904	-0.0117455	1.53524e+07	5.08272e+07	-3.38625e+06	
35925	1.02843	-0.316534	-1.4924	0.358297	-0.403408	-0.0137773	1.39879e+07	4.45958e+07	2.09582e+06	
35954	1.02843	-0.316534	-1.4924	0.37886	-0.337852	-0.0106964	1.39879e+07	4.45958e+07	2.09582e+06	
35985	1.0553	-0.237061	-1.50258	0.380118	-0.333838	-0.0105078	1.46494e+07	5.34998e+07	-5.94212e+06	
36014	1.07185	-0.198715	-1.50564	0.383634	-0.320998	-0.0119339	2.14563e+07	4.97118e+07	-3.96895e+06	
36045	1.07185	-0.198715	-1.50564	0.408738	-0.262836	-0.0165776	2.14563e+07	4.97118e+07	-3.96895e+06	
36134	1.11551	-0.0995869	-1.51595	0.229582	-0.494437	1.23823e-10	2.09207e+07	4.64516e+07	-2.82653e+06	
36165	1.11551	-0.0995869	-1.51595	0.267867	-0.409431	-0.00517255	2.09207e+07	4.64516e+07	-2.82653e+06	
36225	1.14649	-0.0397344	-1.5313	0.222726	-0.485221	3.33647e-10	9.06141e+06	4.37244e+07	-1.27108e+07	
36254	1.16587	-0.011158	-1.53356	0.230338	-0.448493	-0.010677	2.54295e+07	3.75015e+07	-2.97297e+06	
36284	1.16587	-0.011158	-1.53356	0.274585	-0.38324	-0.01585	2.54295e+07	3.75015e+07	-2.97297e+06	
36314	1.17663	0.0211939	-1.54903	0.28908	-0.361864	-0.0175446	1.41712e+07	4.26181e+07	-2.03709e+07	
36374	1.21471	0.109972	-1.56277	0.155648	-0.380383	6.96986e-11	1.2725e+07	4.17779e+07	-5.86729e+06	
36405	1.24002	0.160835	-1.57415	0.160992	-0.362837	-0.00246426	3.35261e+07	6.73584e+07	-1.50795e+07	
36434	1.24331	0.2105	-1.5849	0.17809	-0.328484	-0.0101548	4.35453e+06	6.58649e+07	-1.42495e+07	
36465	1.25537	0.247916	-1.58982	0.178482	-0.322556	-0.0114373	1.60416e+07	4.97438e+07	-6.53973e+06	
36554	1.26168	0.301007	-1.5961	0.077443	-0.352465	6.1541e-10	3.03768e+06	3.41071e+07	-4.54997e+06	
36585	1.26673	0.355958	-1.60391	0.0779898	-0.346326	-0.000818993	-1.78366e+06	4.09955e+07	-1.05146e+07	
36615	1.26673	0.355958	-1.60391	0.0760634	-0.302051	-0.0121747	-1.78366e+06	4.09955e+07	-1.05146e+07	
36645	1.26673	0.355958	-1.60391	0.0725317	-0.22088	-0.0329935	-1.78366e+06	4.09955e+07	-1.05146e+07	
36705	1.26758	0.432985	-1.60463	0.00823962	-0.346557	2.04637e-10	-2.31888e+06	3.52585e+07	4.26015e+06	
36734	1.26579	0.45632	-1.61441	0.00712656	-0.329633	0.00204487	-2.42264e+06	3.14607e+07	-1.31858e+07	
36765	1.26074	0.483682	-1.61367	0.00560029	-0.309813	-0.00626219	-6.81269e+06	3.69415e+07	994049	
36795	1.25543	0.509641	-1.61203	0.000695156	-0.283215	-0.00554648	-7.18476e+06	3.51005e+07	2.21204e+06	
36824	1.25316	0.527438	-1.61411	-0.0036157	-0.262154	-0.00421925	-3.07324e+06	2.41061e+07	-2.81811e+06	
36855	1.25316	0.527438	-1.61411	-0.00831775	-0.225272	-0.00853096	-3.07324e+06	2.41061e+07	-2.81811e+06	
36884	1.24578	0.565358	-1.60625	-0.00850215	-0.223826	-0.00870004	-1.04049e+07	2.6204e+07	1.53483e+06	
36915	1.23135	0.581836	-1.6055	-0.010375	-0.219109	-0.00842378	-1.9668e+07	2.24477e+07	1.01842e+06	
36975	1.22902	0.598359	-1.60684	-0.0958373	-0.286455	1.14372e-09	-3.17814e+06	2.25467e+07	-1.83023e+06	
37004	1.22421	0.622929	-1.6026	-0.098507	-0.267516	-0.00153739	-6.56823e+06	3.35933e+07	5.80719e+06	
37035	1.21643	0.632269	-1.59454	-0.102251	-0.248368	0.00177271	-1.06599e+07	1.27976e+07	1.10464e+07	
37064	1.2073	0.639821	-1.58553	-0.108327	-0.241073	0.00806915	-1.25336e+07	1.03634e+07	1.23649e+07	
37095	1.20023	0.655629	-1.57646	-0.113967	-0.236409	0.0136334	-9.71951e+06	2.17351e+07	1.2459e+07	
37124	1.20023	0.655629	-1.57646	-0.126797	-0.207719	0.0300792	-9.71951e+06	2.17351e+07	1.2459e+07	
37155	1.18762	0.665672	-1.56568	-0.132337	-0.19533	0.0371808	-1.73939e+07	1.38497e+07	1.48742e+07	
37184	1.16508	0.682074	-1.55069	-0.133381	-0.194499	0.0380732	-1.52882e+07	1.07544e+07	5.55894e+06	
37215	1.15539	0.693153	-1.54916	-0.13705	-0.191918	0.0394074	-1.34146e+07	1.53371e+07	2.12227e+06	
37275	1.13951	0.689546	-1.53412	-0.186961	-0.0842161	8.07225e-11	-2.20267e+07	-5.00236e+06	2.08604e+07	
37335	1.10032	0.720505	-1.52357	-0.179183	-0.0614091	2.54577e-11	-1.64958e+07	1.18757e+07	2.07312e+06	
37395	1.08852	0.726929	-1.51772	-0.164624	-0.0641333	3.71154e-11	-1.64638e+07	8.96886e+06	8.15706e+06	
37424	1.08458	0.716979	-1.51768	-0.174008	-0.0590211	0.00464952	-5.51907e+06	-1.39224e+07	65256.5	
37455	1.06241	0.73066	-1.50586	-0.176989	-0.0665392	0.00468476	-3.10733e+07	1.91744e+07	1.65557e+07	
37484	1.04945	0.744489	-1.50244	-0.187243	-0.0602116	0.0101481	-1.82012e+07	1.94199e+07	4.80973e+06	
37515	1.03539	0.741409	-1.50113	-0.194887	-0.0520552	0.0121682	-1.97699e+07	-4.33263e+06	1.84433e+06	
37544	1.0249	0.746837	-1.49222	-0.205563	-0.0543949	0.0131642	-1.47753e+07	7.64483e+06	1.25456e+07	
37604	1.01392	0.74706	-1.48599	-0.15971	-0.010743	4.78149e-10	-1.54991e+07	313691	8.79535e+06	
37634	1.0036	0.747824	-1.48071	-0.164825	-0.0106395	0.00290247	-1.4604e+07	1.08183e+06	7.47622e+06	
37665	0.989372	0.748315	-1.47738	-0.172711	-0.0100553	0.00693962	-2.01638e+07	696411	4.70983e+06	
37694	0.973049	0.752626	-1.47432	-0.187229	-0.00955388	0.0103307	-2.31632e+07	6.11645e+06	4.34808e+06	
37814	0.942112	0.744722	-1.45456	-0.0908492	0.0468791	1.46249e-10	-1.27798e+07	-2.70707e+06	6.07907e+06	
37845	0.934931	0.742258	-1.45462	-0.0969835	0.0455797	0.00291795	-1.02766e+07	-3.52636e+06	-92333.2	
37874	0.925362	0.733198	-1.44914	-0.102225	0.0437812	0.00287086	-1.37137e+07	-1.29837e+07	7.85631e+06	
37905	0.919776	0.73174	-1.44448	-0.110453	0.035991	0.00758465	-8.01722e+06	-2.09306e+06	6.68266e+06	
37934	0.910728	0.72823	-1.44728	-0.113098	0.0353003	0.00978993	-1.30126e+07	-5.04712e+06	-4.02394e+06	
37965	0.90204	0.720632	-1.4451	-0.120516	0.0324234	0.00749628	-1.25102e+07	-1.0941e+07	3.1341e+06	
37994	0.895247	0.716212	-1.44604	-0.122017	0.0311105	0.00787237	-9.80317e+06	-6.3791e+06	-1.35186e+06	
38025	0.895247	0.716212	-1.44604	-0.13231	0.0244125	0.00645291	-9.80317e+06	-6.3791e+06	-1.35186e+06	
38054	0.889371	0.698453	-1.45454	-0.132604	0.0242211	0.00641236	-1.08298e+07	-1.19309e+07	-1.01813e+07	
38085	0.889371	0.698453	-1.45454	-0.143001	0.0127675	-0.00336166	-1.08298e+07	-1.19309e+07	-1.01813e+07	
38114	0.889371	0.698453	-1.45454	-0.162819	-0.00906602	-0.0219934	-1.08298e+07	-1.19309e+07	-1.01813e+07	
38145	0.88868	0.687216	-1.45494	-0.170292	-0.0172983	-0.0290185	-1.00417e+06	-1.63297e+07	-579506	
38174	0.883463	0.680633	-1.46142	-0.171075	-0.0300355	-0.0294705	-7.59297e+06	-9.58053e+06	-9.42006e+06	
38205	0.879592	0.660704	-1.46978	-0.171986	-0.0311851	-0.0306009	-3.28107e+06	-1.46581e+07	-8.38746e+06	
38234	0.875013	0.657561	-1.47237	-0.172774	-0.0347031	-0.0326139	-6.69104e+06	-4.59224e+06	-3.78693e+06	
38265	0.872484	0.638909	-1.47711	-0.175383	-0.036494	-0.0340908	-3.70051e+06	-2.7292e+07	-6.94271e+06	
38294	0.872838	0.62938	-1.47987	-0.17716	-0.0495942	-0.0374233	519632	-1.39622e+07	-4.04134e+06	
38325	0.872838	0.62938	-1.47987	-0.176427	-0.0692808	-0.0431216	519632	-1.39622e+07	-4.04134e+06	
38354	0.872838	0.62938	-1.47987	-0.175242	-0.101115	-0.0523358	519632	-1.39622e+07	-4.04134e+06	
38414	0.874569	0.594613	-1.48268	0.0404377	0.240598	1.48546e-10	-1.06815e+06	-1.52395e+07	-2.60554e+06	
38445	0.880041	0.579885	-1.49016	0.0399891	0.234198	-0.00109433	8.08194e+06	-2.17531e+07	-1.10496e+07	
38475	0.887119	0.564691	-1.48891	0.0443533	0.222451	-0.00706113	1.04671e+07	-2.2469e+07	1.85087e+06	
38505	0.885101	0.555489	-1.48917	0.0518897	0.206273	-0.0057285	-2.98733e+06	-1.36262e+07	-389676	
38565	0.89605	0.526328	-1.4938	0.0489121	0.259808	2.89385e-10	1.02085e+06	-1.69925e+07	-8.88811e+06	
38625	0.911536	0.498299	-1.49953	0.0667053	0.263393	1.67656e-10	5.60282e+06	-1.66912e+07	-6.27951e+06	
38654	0.923134	0.478025	-1.50076	0.0683861	0.258385	-0.00188385	1.73204e+07	-3.02772e+07	-1.8343e+06	
38685	0.933635	0.459288	-1.50945	0.0766999	0.243852	-0.00276432	1.57031e+07	-2.80171e+07	-1.29948e+07	
38714	0.941299	0.442319	-1.50921	0.0837663	0.231245	-0.00861199	1.14768e+07	-2.54134e+07	364423	
38745	0.94814	0.427147	-1.5088	0.0878979	0.222096	-0.0084808	1.02637e+07	-2.27617e+07	608290	
38774	0.94814	0.427147	-1.5088	0.100522	0.194099	-0.0077326	1.02637e+07	-2.27617e+07	608290	
38805	0.961511	0.407425	-1.50749	0.109452	0.174296	-0.00720339	2.01034e+07	-2.96534e+07	1.97747e+06	
38835	0.96891	0.389744	-1.509	0.123926	0.152946	-0.00577961	1.11452e+07	-2.66329e+07	-2.28787e+06	
38865	0.980228	0.373288	-1.50967	0.132619	0.132172	-0.00756415	1.70741e+07	-2.48221e+07	-998245	
38895	0.989353	0.355007	-1.51519	0.147986	0.109832	-0.00846257	1.37819e+07	-2.76142e+07	-8.34485e+06	
38924	1.0026	0.333945	-1.51626	0.158323	0.0891214	-0.0147212	2.005e+07	-3.18696e+07	-1.61056e+06	
38955	1.01562	0.312494	-1.52882	0.164338	0.0795606	-0.0152044	1.97437e+07	-3.25346e+07	-1.90631e+07	
38984	1.03458	0.290253	-1.53628	0.173222	0.06492	-0.0237828	2.87886e+07	-3.37744e+07	-1.13186e+07	
39015	1.04498	0.269237	-1.54106	0.183586	0.0527612	-0.0278575	1.5816e+07	-3.19705e+07	-7.28124e+06	
39044	1.05944	0.248511	-1.54691	0.188805	0.0422109	-0.0302603	2.20309e+07	-3.15782e+07	-8.90754e+06	
39075	1.05944	0.248511	-1.54691	0.216564	0.00242238	-0.0414838	2.20309e+07	-3.15782e+07	-8.90754e+06	
39164	1.09903	0.176081	-1.55991	0.201704	0.390142	2.90492e-10	2.03994e+07	-3.87803e+07	-5.9827e+06	
39195	1.11322	0.151007	-1.56273	0.210272	0.373854	-0.00251273	2.17971e+07	-3.84924e+07	-4.32302e+06	
39224	1.12653	0.12526	-1.56613	0.221388	0.354223	-0.00471747	2.04542e+07	-3.95779e+07	-5.22873e+06	
39255	1.14026	0.104524	-1.56895	0.235502	0.326914	-0.00832529	2.1134e+07	-3.19153e+07	-4.34437e+06	
39284	1.14802	0.0735918	-1.56016	0.253254	0.300105	-0.0119746	1.19512e+07	-4.76681e+07	1.35446e+07	
39315	1.1641	0.0475641	-1.5659	0.264011	0.257204	0.000215582	2.48251e+07	-4.01689e+07	-8.85366e+06	
39345	1.1763	0.0255653	-1.56495	0.271458	0.245153	-0.00244052	1.88764e+07	-3.40375e+07	1.46196e+06	
39435	1.20035	-0.0262229	-1.56538	0.176472	0.470214	6.64679e-10	1.96222e+07	-4.23957e+07	174175	
39464	1.20035	-0.0262229	-1.56538	0.214736	0.387542	0.000339642	1.96222e+07	-4.23957e+07	174175	
39495	1.21313	-0.0521	-1.56838	0.223566	0.368464	0.00041802	1.99321e+07	-4.03338e+07	-4.68886e+06	
39524	1.24905	-0.111704	-1.56715	0.234329	0.346684	-0.00211397	5.60568e+07	-9.30247e+07	1.92611e+06	
39555	1.27108	-0.141152	-1.56628	0.27469	0.279706	-0.000727166	3.44192e+07	-4.60192e+07	1.36037e+06	
39584	1.28909	-0.169224	-1.56429	0.285016	0.2659	-0.000319055	2.82097e+07	-4.39635e+07	3.10915e+06	
39615	1.30389	-0.196521	-1.56588	0.298556	0.244798	0.00117334	2.3212e+07	-4.28044e+07	-2.47986e+06	
39644	1.32119	-0.226197	-1.56486	0.31318	0.217831	-0.000388972	2.7152e+07	-4.65909e+07	1.59761e+06	
39675	1.34066	-0.25832	-1.55953	0.334358	0.18149	0.000857167	3.06124e+07	-5.04981e+07	8.37945e+06	
39704	1.3534	-0.286954	-1.55748	0.359154	0.140586	0.00764452	2.00623e+07	-4.50777e+07	3.2267e+06	
39735	1.37479	-0.321556	-1.55404	0.377211	0.100017	0.0105486	3.37105e+07	-5.45495e+07	5.41878e+06	
39764	1.3927	-0.351033	-1.55326	0.390358	0.0787423	0.0126619	2.83008e+07	-4.65784e+07	1.22674e+06	
39795	1.41337	-0.384973	-1.54723	0.397999	0.0661661	0.0129931	3.2721e+07	-5.37238e+07	9.54654e+06	
39824	1.43645	-0.415662	-1.54134	0.411742	0.0436021	0.0170026	3.65735e+07	-4.86369e+07	9.33513e+06	
39855	1.45538	-0.453859	-1.53541	0.426005	0.0246337	0.0206433	3.00565e+07	-6.06343e+07	9.41164e+06	
39884	1.45538	-0.453859	-1.53541	0.463877	-0.0517655	0.032502	3.00565e+07	-6.06343e+07	9.41164e+06	
39915	1.47284	-0.486585	-1.53267	0.487321	-0.0990602	0.0398431	2.77842e+07	-5.20704e+07	4.36283e+06	
39944	1.49508	-0.525893	-1.53387	0.507325	-0.136551	0.0429843	3.54444e+07	-6.26411e+07	-1.91018e+06	
40004	1.53499	-0.591705	-1.52925	0.284452	0.603121	5.82485e-10	2.65683e+07	-5.24302e+07	3.30297e+06	
40035	1.55323	-0.622486	-1.5274	0.304378	0.563799	0.00247723	2.92018e+07	-4.92742e+07	2.96264e+06	
40064	1.55323	-0.622486	-1.5274	0.351685	0.483974	0.00727671	2.92018e+07	-4.92742e+07	2.96264e+06	
40095	1.5757	-0.659047	-1.52129	0.370082	0.452932	0.00914317	3.60876e+07	-5.87136e+07	9.8128e+06	
40124	1.59476	-0.69359	-1.51844	0.394982	0.412419	0.015914	3.06407e+07	-5.55486e+07	4.58329e+06	
40155	1.63765	-0.766282	-1.50873	0.39774	0.40742	0.0163265	3.56469e+07	-5.31547e+07	5.65247e+06	
40184	1.65456	-0.798267	-1.50526	0.407365	0.393068	0.0178527	2.72932e+07	-5.16246e+07	5.59184e+06	
40215	1.67059	-0.83518	-1.49836	0.41719	0.374483	0.0198657	2.58966e+07	-5.96613e+07	1.11506e+07	
40245	1.69064	-0.870794	-1.49407	0.42729	0.351215	0.0242145	3.24626e+07	-5.76423e+07	6.94286e+06	
40275	1.7095	-0.912473	-1.49228	0.441898	0.325276	0.0273388	3.05695e+07	-6.75555e+07	2.91524e+06	
40305	1.7095	-0.912473	-1.49228	0.48225	0.236103	0.0311869	3.05695e+07	-6.75555e+07	2.91524e+06	
40335	1.73253	-0.9442	-1.49091	0.500592	0.19557	0.032936	3.74312e+07	-5.15664e+07	2.21142e+06	
40364	1.74779	-0.97862	-1.48821	0.528665	0.156895	0.0345946	2.48275e+07	-5.60094e+07	4.40023e+06	
40394	1.76156	-1.00671	-1.48024	0.542072	0.12665	0.0369707	2.24487e+07	-4.57902e+07	1.29866e+07	
40425	1.77837	-1.04722	-1.47742	0.552174	0.106044	0.0428147	2.7448e+07	-6.6159e+07	4.62037e+06	
40484	1.7975	-1.10907	-1.4669	0.129377	0.56069	1.82983e-10	1.47147e+07	-4.55644e+07	1.63646e+07	
40515	1.81119	-1.14157	-1.46402	0.134233	0.545654	0.00540033	2.24638e+07	-5.33203e+07	4.7211e+06	
40544	1.81119	-1.14157	-1.46402	0.16119	0.481669	0.0110657	2.24638e+07	-5.33203e+07	4.7211e+06	
40575	1.83573	-1.20631	-1.45391	0.16456	0.473671	0.0117738	2.22472e+07	-5.36136e+07	1.13723e+07	
40605	1.8368	-1.23213	-1.44911	0.174571	0.449545	0.0168914	1.77008e+06	-4.25441e+07	7.90571e+06	
40635	1.84595	-1.26287	-1.44365	0.175367	0.4304	0.0204489	1.5082e+07	-5.07126e+07	9.02188e+06	
40664	1.84595	-1.26287	-1.44365	0.195728	0.361938	0.0326285	1.5082e+07	-5.07126e+07	9.02188e+06	
40695	1.85421	-1.29128	-1.44202	0.208849	0.317818	0.0404775	1.36627e+07	-4.69881e+07	2.69465e+06	
40724	1.8573	-1.31643	-1.43888	0.218277	0.285397	0.0423368	5.1184e+06	-4.16542e+07	5.20085e+06	
40755	1.85879	-1.34101	-1.43569	0.22273	0.249157	0.0468616	2.4777e+06	-4.07776e+07	5.27867e+06	
40815	1.85428	-1.38948	-1.42165	-0.0389412	0.341394	-4.83553e-11	-7.4746e+06	-4.31059e+07	1.93593e+07	
40844	1.85271	-1.41051	-1.41833	-0.0449956	0.306478	0.015681	-2.6216e+06	-3.50294e+07	5.5277e+06	
40875	1.84711	-1.42871	-1.41618	-0.0471191	0.278104	0.0201585	-9.34817e+06	-3.03759e+07	3.58854e+06	
40904	1.85192	-1.45204	-1.41668	-0.0504844	0.267169	0.0214503	8.05793e+06	-3.90017e+07	-842944	
40935	1.8506	-1.47356	-1.41559	-0.0468584	0.249618	0.021071	-2.21043e+06	-3.6035e+07	1.83242e+06	
40964	1.84377	-1.49273	-1.41394	-0.0476541	0.236646	0.0217307	-1.14603e+07	-3.21584e+07	2.76492e+06	
40995	1.83858	-1.50701	-1.41557	-0.0528112	0.222174	0.0229749	-8.72076e+06	-2.39814e+07	-2.74343e+06	
41024	1.83858	-1.50701	-1.41557	-0.0643226	0.190519	0.0193536	-8.72076e+06	-2.39814e+07	-2.74343e+06	
41055	1.83858	-1.50701	-1.41557	-0.0839444	0.136561	0.0131809	-8.72076e+06	-2.39814e+07	-2.74343e+06	
41115	1.8197	-1.5533	-1.42502	-0.201244	0.150454	9.17342e-11	-1.51213e+07	-2.69619e+07	-7.25836e+06	
41145	1.81014	-1.56449	-1.4251	-0.211677	0.13185	-0.00500827	-1.61563e+07	-1.89079e+07	-141614	
41174	1.79163	-1.57446	-1.42623	-0.223795	0.117669	-0.00511448	-3.13564e+07	-1.68895e+07	-1.90244e+06	
41205	1.77946	-1.58151	-1.43194	-0.24543	0.106016	-0.00642716	-2.06346e+07	-1.19472e+07	-9.69651e+06	
41234	1.76362	-1.58635	-1.43521	-0.260906	0.0970552	-0.0136995	-2.6891e+07	-8.22662e+06	-5.55214e+06	
41265	1.75282	-1.59592	-1.4402	-0.273814	0.0931064	-0.0163646	-1.83812e+07	-1.62841e+07	-8.49208e+06	
41295	1.73239	-1.60137	-1.44495	-0.27988	0.0877326	-0.019167	-3.48252e+07	-9.28593e+06	-8.08821e+06	
41325	1.71338	-1.60387	-1.45038	-0.288238	0.085504	-0.0211081	-3.24521e+07	-4.26895e+06	-9.27789e+06	
41354	1.69303	-1.60424	-1.45616	-0.292132	0.0849917	-0.0222215	-3.47879e+07	-626512	-9.86751e+06	
41384	1.66857	-1.6048	-1.46213	-0.303612	0.084785	-0.0254778	-4.18723e+07	-964153	-1.02233e+07	
41415	1.64536	-1.60682	-1.46737	-0.321199	0.08438	-0.0297716	-3.97739e+07	-3.45914e+06	-8.98267e+06	
41444	1.64536	-1.60682	-1.46737	-0.3737	0.079814	-0.0416287	-3.97739e+07	-3.45914e+06	-8.98267e+06	
41475	1.62086	-1.60806	-1.4719	-0.398758	0.0776347	-0.0472878	-4.21143e+07	-2.142e+06	-7.78852e+06	
41504	1.59457	-1.60656	-1.47619	-0.43287	0.0758997	-0.0535965	-4.5229e+07	2.58145e+06	-7.37726e+06	
41535	1.56606	-1.60264	-1.48071	-0.446439	0.0766741	-0.0558096	-4.91566e+07	6.77152e+06	-7.79133e+06	
41565	1.53213	-1.6019	-1.48352	-0.472984	0.0803308	-0.060017	-5.85606e+07	1.26911e+06	-4.85831e+06	
41594	1.50174	-1.58608	-1.48996	-0.506363	0.0810541	-0.0627862	-5.2526e+07	2.73543e+07	-1.11304e+07	
41625	1.46753	-1.57753	-1.49446	-0.522121	0.0892604	-0.0661253	-5.92451e+07	1.48028e+07	-7.78772e+06	
41655	1.43746	-1.57532	-1.49922	-0.548781	0.0959217	-0.0696298	-5.21491e+07	3.82284e+06	-8.24664e+06	
41685	1.40657	-1.56574	-1.50422	-0.561297	0.0968392	-0.071609	-5.36483e+07	1.66445e+07	-8.692e+06	
41715	1.40657	-1.56574	-1.50422	-0.622456	0.115814	-0.0815179	-5.36483e+07	1.66445e+07	-8.692e+06	
41744	1.37317	-1.55316	-1.50809	-0.656254	0.1263	-0.0869938	-5.81387e+07	2.18932e+07	-6.73767e+06	
41775	1.33926	-1.54061	-1.51153	-0.691138	0.139436	-0.0910364	-5.91336e+07	2.188e+07	-5.99408e+06	
41804	1.26765	-1.51633	-1.52025	-0.69646	0.141405	-0.0915759	-6.48427e+07	1.94276e+07	-1.2057e+07	
41835	1.26765	-1.51633	-1.52025	-0.762599	0.161221	-0.103874	-6.48427e+07	1.94276e+07	-1.2057e+07	
41864	1.22554	-1.49403	-1.52719	-0.795669	0.171129	-0.110023	-7.37484e+07	3.90452e+07	-1.21553e+07	
41895	1.17811	-1.48233	-1.52482	-0.85098	0.200413	-0.11914	-8.3139e+07	2.05064e+07	4.15306e+06	
41925	1.13605	-1.44959	-1.52679	-0.925805	0.218869	-0.115402	-7.38257e+07	5.74669e+07	-3.46206e+06	
41954	1.10418	-1.43201	-1.53572	-0.985604	0.265417	-0.118206	-5.60323e+07	3.09057e+07	-1.56899e+07	
41985	1.07579	-1.41859	-1.53197	-1.03603	0.293232	-0.132327	-4.9968e+07	2.36135e+07	6.5959e+06	
42015	1.07579	-1.41859	-1.53197	-1.12598	0.335737	-0.120454	-4.9968e+07	2.36135e+07	6.5959e+06	
42044	1.03345	-1.38599	-1.52833	-1.14546	0.344946	-0.117882	-7.48052e+07	5.7605e+07	6.42659e+06	
42104	0.929262	-1.30365	-1.53749	-0.499293	-0.537717	1.77486e-10	-5.82663e+07	4.75782e+07	-5.20898e+06	
42135	0.899601	-1.27678	-1.53788	-0.516773	-0.523444	-0.0015627	-5.2634e+07	4.76748e+07	-696756	
42164	0.867411	-1.24946	-1.53915	-0.5373	-0.50485	-0.00183443	-5.71925e+07	4.85453e+07	-2.24508e+06	
42195	0.867411	-1.24946	-1.53915	-0.612794	-0.440771	-0.00479794	-5.71925e+07	4.85453e+07	-2.24508e+06	
42224	0.837701	-1.20978	-1.54101	-0.652257	-0.407274	-0.00634704	-5.29104e+07	7.06719e+07	-3.3175e+06	
42255	0.807341	-1.18171	-1.53953	-0.696702	-0.34791	-0.00913374	-5.41354e+07	5.00442e+07	2.6342e+06	
42284	0.807341	-1.18171	-1.53953	-0.789273	-0.262334	-0.00462925	-5.41354e+07	5.00442e+07	2.6342e+06	
42315	0.783178	-1.15572	-1.53387	-0.829875	-0.224801	-0.00265359	-4.32143e+07	4.64821e+07	1.01256e+07	
42344	0.748712	-1.11845	-1.53356	-0.858396	-0.194123	0.00402932	-6.17353e+07	6.6756e+07	560762	
42375	0.702263	-1.04083	-1.52798	-0.873213	-0.178102	0.0041639	-4.27498e+07	6.49787e+07	8.0316e+06	
42405	0.679892	-1.00536	-1.52114	-0.893733	-0.146912	0.00801907	-4.01962e+07	6.37357e+07	1.23014e+07	
42434	0.660337	-0.962401	-1.51896	-0.904586	-0.129703	0.0113405	-3.5196e+07	7.73144e+07	3.91389e+06	
42465	0.634295	-0.914691	-1.52057	-0.918312	-0.0995506	0.0128669	-4.69327e+07	8.59823e+07	-2.90941e+06	
42494	0.634295	-0.914691	-1.52057	-0.977447	0.00878714	0.00920101	-4.69327e+07	8.59823e+07	-2.90941e+06	
42525	0.634295	-0.914691	-1.52057	-1.08023	0.197088	0.0028294	-4.69327e+07	8.59823e+07	-2.90941e+06	
42554	0.634295	-0.914691	-1.52058	-1.22384	0.460194	-0.0060734	-4.69327e+07	8.59823e+07	-2.90941e+06	
42614	0.580394	-0.75499	-1.53142	-0.0782827	-0.697623	7.46699e-11	-4.62258e+07	1.57651e+08	-9.66221e+06	
42645	0.574053	-0.70437	-1.53368	-0.108792	-0.593574	-0.00637706	-1.15194e+07	9.19615e+07	-4.10210e+06	
42674	0.568402	-0.662471	-1.53234	-0.118468	-0.516326	-0.00982283	-1.02787e+07	7.62009e+07	2.43471e+06	
42705	0.564162	-0.617978	-1.53609	-0.127102	-0.452317	-0.00777768	-7.72238e+06	8.10361e+07	-6.82405e+06	
42734	0.553207	-0.560778	-1.53959	-0.132431	-0.396402	-0.0124863	-1.99836e+07	1.04347e+08	-6.39510e+06	
42764	0.55331	-0.516417	-1.53994	-0.14502	-0.330664	-0.0165152	188185	8.1045e+07	-627783	
42794	0.55378	-0.477513	-1.54467	-0.144981	-0.313644	-0.016647	859933	7.12238e+07	-8.6693e+06	
42824	0.555018	-0.423727	-1.5431	-0.144774	-0.296551	-0.0187277	2.26922e+06	9.85999e+07	2.88549e+06	
42855	0.557792	-0.380364	-1.54075	-0.144094	-0.266971	-0.017862	5.09256e+06	7.96009e+07	4.30825e+06	
42884	0.566806	-0.331363	-1.5469	-0.142107	-0.235926	-0.0161818	1.65681e+07	9.0061e+07	-1.13073e+07	
42915	0.570009	-0.273939	-1.55232	-0.138131	-0.214312	-0.0188956	5.8967e+06	1.05717e+08	-9.97142e+06	
42944	0.575437	-0.228654	-1.55707	-0.136539	-0.185768	-0.0215878	1.00047e+07	8.34795e+07	-8.76316e+06	
42975	0.575437	-0.228654	-1.55707	-0.124533	-0.0855924	-0.0321036	1.00047e+07	8.34795e+07	-8.76316e+06	
43004	0.579958	-0.166971	-1.5565	-0.11733	-0.0254871	-0.0384131	8.35158e+06	1.13947e+08	1.05895e+06	
43035	0.579958	-0.166971	-1.5565	-0.10355	0.162525	-0.0366658	8.35158e+06	1.13947e+08	1.05895e+06	
43064	0.587063	-0.0567767	-1.55434	-0.103299	0.165943	-0.0366341	4.58453e+06	1.01586e+08	707682	
43095	0.600485	-0.0126023	-1.547	-0.102061	0.193372	-0.036443	2.49171e+07	8.20055e+07	1.36385e+07	
43124	0.596783	0.0393465	-1.54405	-0.0908488	0.230274	-0.0303057	-6.87969e+06	9.65408e+07	5.48525e+06	
43155	0.599049	0.0831454	-1.53448	-0.0929127	0.259237	-0.0286601	4.21741e+06	8.15314e+07	1.78025e+07	
43184	0.594835	0.135888	-1.53945	-0.0919005	0.278804	-0.0243875	-7.85569e+06	9.83207e+07	-9.26321e+06	
43244	0.609146	0.197647	-1.53626	0.0668055	-0.544052	5.3133e-11	1.51802e+07	5.15251e+07	1.50704e+07	
43304	0.616311	0.248233	-1.55321	0.043822	-0.525702	4.00389e-11	1.39498e+07	4.11998e+07	-2.03026e+07	
43335	0.616514	0.282364	-1.57337	0.0480069	-0.513342	-0.00609079	379627	6.40664e+07	-3.7834e+07	
43365	0.616514	0.282364	-1.57337	0.0484625	-0.436463	-0.0514916	379627	6.40664e+07	-3.7834e+07	
43394	0.614367	0.303376	-1.58378	0.0486789	-0.399945	-0.073057	-4.03787e+06	3.95315e+07	-1.95925e+07	
43425	0.614687	0.323395	-1.59196	0.0464984	-0.378598	-0.083637	602868	3.77193e+07	-1.53987e+07	
43454	0.612325	0.34381	-1.60494	0.0467336	-0.363887	-0.0896425	-4.45742e+06	3.85259e+07	-2.4511e+07	
43485	0.615946	0.356433	-1.60841	0.0443266	-0.343083	-0.102878	6.83979e+06	2.38496e+07	-6.54608e+06	
43514	0.615946	0.356433	-1.60841	0.0539707	-0.309455	-0.112108	6.83979e+06	2.38496e+07	-6.54608e+06	
43545	0.610808	0.377972	-1.62481	0.0584849	-0.293714	-0.116429	-9.73117e+06	4.07999e+07	-3.10622e+07	
43605	0.599913	0.405292	-1.63949	-0.0394697	-0.0283957	2.84532e-10	-6.44783e+06	1.80299e+07	-1.78444e+06	
43634	0.599913	0.405292	-1.63949	-0.0470137	-0.00730066	-0.0020878	-6.44783e+06	1.80299e+07	-1.78444e+06	
43695	0.589334	0.417555	-1.7047	-0.068578	0.0494404	2.43007e-10	-2.08874e+07	2.17014e+07	-2.72053e+07	
43725	0.576308	0.427835	-1.6933	-0.0748442	0.0559508	-0.00816158	-2.48931e+07	1.96451e+07	2.17891e+07	
43754	0.576308	0.427835	-1.6933	-0.103969	0.0789356	0.0173316	-2.48931e+07	1.96451e+07	2.17891e+07	
43785	0.577881	0.417613	-1.71671	-0.123386	0.0942588	0.0343271	3.01307e+06	-1.95734e+07	-4.48207e+07	
43815	0.56542	0.424856	-1.69567	-0.120764	0.0772299	-0.00466687	-2.38907e+07	1.38873e+07	4.03393e+07	
43844	0.556107	0.440065	-1.70933	-0.135815	0.0859789	0.0207469	-1.78853e+07	2.92071e+07	-2.6245e+07	
43874	0.550954	0.437803	-1.69556	-0.145473	0.101751	0.00657462	-9.91046e+06	-4.35068e+06	2.64917e+07	
43905	0.540193	0.441413	-1.68869	-0.153204	0.0983572	0.0272382	-2.07193e+07	6.95142e+06	1.32311e+07	
43934	0.537483	0.43051	-1.67557	-0.153825	0.0985657	0.0276351	-5.2311e+06	-2.10448e+07	2.53277e+07	
43965	0.529001	0.43129	-1.66447	-0.155081	0.093515	0.0337137	-1.63888e+07	1.50807e+06	2.14387e+07	
43995	0.529001	0.43129	-1.66447	-0.173764	0.0952342	0.0581539	-1.63888e+07	1.50807e+06	2.14387e+07	
44024	0.527067	0.431329	-1.65563	-0.179664	0.0957771	0.0658718	-3.74566e+06	74542.3	1.71209e+07	
44055	0.523306	0.431369	-1.65936	-0.181687	0.0958173	0.0751171	-7.29351e+06	78528.1	-7.23903e+06	
44085	0.528684	0.429219	-1.65425	-0.186938	0.0958739	0.069905	1.04402e+07	-4.17484e+06	9.92688e+06	
44114	0.522853	0.425196	-1.6489	-0.177855	0.0922418	0.0785414	-1.13331e+07	-7.81904e+06	1.03898e+07	
44145	0.522542	0.426426	-1.65003	-0.186015	0.0866121	0.086022	-605387	2.39457e+06	-2.19065e+06	
44175	0.516546	0.431501	-1.63924	-0.186432	0.0882643	0.0845105	-1.16873e+07	9.8932e+06	2.10252e+07	
44204	0.521894	0.435189	-1.63875	-0.192042	0.093013	0.0946026	1.04421e+07	7.20191e+06	964813	
44234	0.514613	0.437425	-1.63504	-0.18609	0.0971181	0.0951525	-1.42348e+07	4.37042e+06	7.25864e+06	
44265	0.511734	0.440434	-1.63448	-0.192923	0.0992159	0.0986367	-5.63646e+06	5.89138e+06	1.08506e+06	
44295	0.519336	0.446423	-1.63455	-0.196136	0.102574	0.0992551	1.49022e+07	1.17419e+07	-127363	
44324	0.516067	0.449051	-1.63361	-0.190324	0.107153	0.0992055	-6.41736e+06	5.15978e+06	1.84032e+06	
44355	0.516067	0.449051	-1.63361	-0.198795	0.113964	0.101635	-6.41736e+06	5.15978e+06	1.84032e+06	
44385	0.520464	0.450971	-1.63344	-0.19995	0.114893	0.101966	-1.20414e+06	7.56813e+06	-1.20062e+06	
44414	0.529326	0.452083	-1.63374	-0.199986	0.11512	0.10193	1.74813e+07	2.19299e+06	-600200	
44445	0.529919	0.456824	-1.63494	-0.197364	0.115449	0.10184	1.17081e+06	9.36246e+06	-2.35752e+06	
44475	0.529919	0.456824	-1.63494	-0.196135	0.12528	0.0993645	1.17081e+06	9.36246e+06	-2.35752e+06	
44504	0.529919	0.456824	-1.63494	-0.193887	0.143256	0.0948381	1.17081e+06	9.36246e+06	-2.35752e+06	
44535	0.532058	0.461861	-1.63162	-0.193254	0.148311	0.093565	4.23941e+06	9.98333e+06	6.57114e+06	
44565	0.533665	0.465089	-1.62877	-0.190202	0.155499	0.0982962	3.18772e+06	6.40411e+06	5.64879e+06	
44594	0.543732	0.478845	-1.62489	-0.189724	0.15646	0.0991436	1.82411e+07	1.03015e+07	2.07176e+06	
44625	0.546992	0.483855	-1.62621	-0.183157	0.160168	0.0998894	6.48934e+06	9.97119e+06	-2.62296e+06	
44655	0.54687	0.491311	-1.63022	-0.179848	0.165254	0.0985517	-243692	1.48564e+07	-7.99766e+06	
44685	0.552535	0.501496	-1.62557	-0.180008	0.175059	0.0932732	1.13005e+07	2.03179e+07	9.27615e+06	
44745	0.554554	0.516608	-1.61438	0.0360301	-0.13363	1.05435e-10	-1.92203e+06	2.99234e+07	1.31043e+07	
44775	0.548566	0.535952	-1.59395	0.0357418	-0.129141	0.00196565	-1.2002e+07	3.87723e+07	4.09425e+07	
44804	0.547647	0.550957	-1.57632	0.0339415	-0.123325	0.00810703	-1.84519e+06	3.01138e+07	3.5382e+07	
44834	0.547647	0.550957	-1.57632	0.032004	-0.0917057	0.0452581	-1.84519e+06	3.01138e+07	3.5382e+07	
44865	0.555908	0.547261	-1.57401	0.0305094	-0.0673135	0.0739175	1.66089e+07	-7.43093e+06	4.6345e+06	
44894	0.564964	0.541649	-1.57424	0.0404747	-0.071772	0.0766982	1.82349e+07	-1.12998e+07	-456993	
44925	0.576982	0.535394	-1.57181	0.0519627	-0.0788909	0.0764103	2.42339e+07	-1.26123e+07	4.90865e+06	
44955	0.586361	0.533664	-1.57874	0.066503	-0.0864583	0.0793555	1.89372e+07	-3.49311e+06	-1.40028e+07	
44984	0.586361	0.533664	-1.57874	0.0943407	-0.0915931	0.0587713	1.89372e+07	-3.49311e+06	-1.40028e+07	
45014	0.586361	0.533664	-1.57874	0.139222	-0.0998718	0.0255846	1.89372e+07	-3.49311e+06	-1.40028e+07	
45045	0.608155	0.529213	-1.57807	0.147744	-0.101444	0.0192833	4.41915e+07	-9.02502e+06	1.35756e+06	
45074	0.628852	0.525804	-1.57878	0.172933	-0.106588	0.0200571	4.20134e+07	-6.91991e+06	-1.42683e+06	
45104	0.638472	0.522172	-1.57426	0.203183	-0.11157	0.0190298	1.95498e+07	-7.38092e+06	9.16704e+06	
45135	0.654315	0.510878	-1.57737	0.205528	-0.112456	0.0201298	1.30965e+07	-1.12991e+07	-6.5324e+06	
45165	0.662274	0.504907	-1.5735	0.2071	-0.113812	0.0193459	1.62328e+07	-1.21783e+07	7.89441e+06	
45195	0.675048	0.499136	-1.57372	0.207587	-0.114177	0.0195828	2.60915e+07	-1.17879e+07	-459577	
45224	0.690179	0.491393	-1.57391	0.210718	-0.115592	0.0195276	3.09391e+07	-1.58315e+07	-374179	
45255	0.69752	0.482477	-1.57016	0.217215	-0.118916	0.019449	1.50312e+07	-1.82554e+07	7.66462e+06	
45285	0.69752	0.482477	-1.57016	0.2339	-0.13918	0.0279568	1.50312e+07	-1.82554e+07	7.66462e+06	
45315	0.707648	0.471909	-1.56748	0.236605	-0.142466	0.0293364	2.07923e+07	-2.16949e+07	5.50907e+06	
45345	0.717449	0.462194	-1.56392	0.244714	-0.150927	0.0314849	2.01401e+07	-1.99642e+07	7.31431e+06	
45374	0.729881	0.448711	-1.56674	0.256798	-0.162905	0.0358735	2.55727e+07	-2.77354e+07	-5.79926e+06	
45404	0.742471	0.433175	-1.56072	0.268306	-0.175386	0.0332639	2.59365e+07	-3.20068e+07	1.23983e+07	
45435	0.751918	0.418137	-1.55504	0.276865	-0.185949	0.0373553	1.94929e+07	-3.10268e+07	1.17309e+07	
45465	0.751918	0.418137	-1.55504	0.300842	-0.224111	0.0517843	1.94929e+07	-3.10268e+07	1.17309e+07	
45495	0.764208	0.404739	-1.54908	0.307274	-0.23435	0.0556555	2.54237e+07	-2.77181e+07	1.23209e+07	
45524	0.7766	0.391848	-1.54634	0.318715	-0.246823	0.0611999	2.56655e+07	-2.6697e+07	5.67447e+06	
45554	0.786316	0.371744	-1.54064	0.333344	-0.262041	0.0644343	2.01449e+07	-4.16849e+07	1.18269e+07	
45585	0.806653	0.35013	-1.53844	0.347244	-0.290803	0.0725949	4.22179e+07	-4.48682e+07	4.56204e+06	
45615	0.810299	0.339767	-1.52804	0.378908	-0.324454	0.0760164	7.57898e+06	-2.15386e+07	2.16207e+07	
45645	0.820457	0.318624	-1.5278	0.385729	-0.343839	0.0954751	2.11358e+07	-4.39934e+07	485853	
45675	0.840542	0.293777	-1.51944	0.399044	-0.371555	0.0957812	4.1863e+07	-5.1788e+07	1.74231e+07	
45704	0.855334	0.274636	-1.5188	0.420394	-0.397967	0.104667	3.08743e+07	-3.99531e+07	1.34366e+06	
45735	0.862027	0.253572	-1.51318	0.435214	-0.417144	0.105312	1.39896e+07	-4.40291e+07	1.17383e+07	
45765	0.874119	0.23161	-1.5136	0.443608	-0.443562	0.112355	2.53038e+07	-4.59569e+07	-877157	
45795	0.891609	0.204857	-1.5116	0.453476	-0.461485	0.112013	3.66589e+07	-5.60746e+07	4.18893e+06	
45824	0.906291	0.181183	-1.50801	0.473272	-0.491765	0.114275	3.08071e+07	-4.96718e+07	7.53529e+06	
45884	0.922406	0.152981	-1.50447	0.197067	0.473432	1.41317e-10	3.38734e+07	-5.92826e+07	7.44168e+06	
45945	0.95316	0.101986	-1.50115	0.201842	0.481187	2.64574e-10	3.04435e+07	-5.4857e+07	2.68676e+06	
45974	0.973348	0.0747602	-1.50386	0.202755	0.479541	8.06031e-05	4.26691e+07	-5.75429e+07	-5.72117e+06	
46005	0.991335	0.0430136	-1.50273	0.210435	0.469184	-0.000949208	3.80574e+07	-6.7173e+07	2.3789e+06	
46035	1.00727	0.0111203	-1.49427	0.222994	0.447016	-0.000164171	3.37609e+07	-6.75566e+07	1.79289e+07	
46065	1.02746	-0.0196606	-1.50066	0.238187	0.416616	0.00790381	4.28104e+07	-6.5274e+07	-1.35558e+07	
46094	1.04595	-0.0499468	-1.5018	0.257452	0.387243	0.00180368	3.92646e+07	-6.43059e+07	-2.42357e+06	
46124	1.06414	-0.0794041	-1.50472	0.278654	0.352517	0.000494956	3.8666e+07	-6.26192e+07	-6.20476e+06	
46154	1.08487	-0.110814	-1.50535	0.300694	0.316825	-0.00304176	4.41133e+07	-6.68534e+07	-1.33811e+06	
46185	1.09989	-0.139275	-1.5049	0.309958	0.302785	-0.00332276	3.20251e+07	-6.06904e+07	957074	
46215	1.11556	-0.166743	-1.50783	0.31284	0.297323	-0.00323662	3.34672e+07	-5.86591e+07	-6.26324e+06	
46245	1.11556	-0.166743	-1.50783	0.345973	0.239251	-0.00943723	3.34672e+07	-5.86591e+07	-6.26324e+06	
46274	1.13151	-0.196482	-1.50423	0.368061	0.200536	-0.013571	3.41347e+07	-6.36203e+07	7.70474e+06	
46304	1.14941	-0.222513	-1.50764	0.38547	0.168089	-0.00964155	3.83472e+07	-5.57708e+07	-7.29115e+06	
46335	1.16594	-0.251605	-1.50797	0.399275	0.148012	-0.0122664	3.54648e+07	-6.24266e+07	-709210	
46365	1.18867	-0.285241	-1.50975	0.407786	0.13303	-0.0124366	4.88417e+07	-7.22818e+07	-3.83305e+06	
46424	1.20717	-0.317986	-1.5141	0.21515	0.530279	3.50298e-10	3.98256e+07	-7.0478e+07	-9.35987e+06	
46454	1.2248	-0.347464	-1.51579	0.246214	0.475306	-0.0073007	3.79897e+07	-6.35409e+07	-3.63634e+06	
46484	1.2463	-0.378953	-1.51546	0.269008	0.437182	-0.0094825	4.64278e+07	-6.79815e+07	700023	
46515	1.26113	-0.409085	-1.51897	0.291293	0.404551	-0.00914649	3.20648e+07	-6.51514e+07	-7.5833e+06	
46545	1.28131	-0.441171	-1.52309	0.302836	0.381096	-0.0118765	4.37005e+07	-6.94758e+07	-8.9231e+06	
46575	1.30009	-0.473247	-1.52952	0.312014	0.366506	-0.0137503	4.07082e+07	-6.95568e+07	-1.3945e+07	
46604	1.33975	-0.529937	-1.53853	0.320562	0.351899	-0.0166788	8.61208e+07	-1.2309e+08	-1.95571e+07	
46634	1.33975	-0.529937	-1.53853	0.416156	0.21527	-0.0383871	8.61208e+07	-1.2309e+08	-1.95571e+07	
46665	1.35989	-0.556168	-1.54006	0.47558	0.130338	-0.0518815	4.38231e+07	-5.70643e+07	-3.34091e+06	
46695	1.37918	-0.583289	-1.54152	0.49793	0.101236	-0.0535854	4.2019e+07	-5.90929e+07	-3.1688e+06	
46725	1.39749	-0.612232	-1.54207	0.511796	0.0817349	-0.0546311	3.99594e+07	-6.31575e+07	-1.20862e+06	
46754	1.41641	-0.638474	-1.5426	0.520187	0.0684718	-0.0548849	4.13351e+07	-5.73457e+07	-1.14623e+06	
46785	1.42984	-0.664257	-1.54752	0.523907	0.0633107	-0.054988	2.939e+07	-5.64271e+07	-1.07731e+07	
46815	1.42984	-0.664257	-1.54752	0.553004	0.00744785	-0.0656533	2.939e+07	-5.64271e+07	-1.07731e+07	
46845	1.45074	-0.6937	-1.5469	0.578573	-0.0416437	-0.0750259	4.58228e+07	-6.45319e+07	1.34426e+06	
46874	1.46979	-0.715735	-1.54887	0.611565	-0.0881067	-0.074058	4.18024e+07	-4.83643e+07	-4.30848e+06	
46904	1.48809	-0.743135	-1.54838	0.637901	-0.118576	-0.0767724	4.022e+07	-6.02262e+07	1.07757e+06	
46935	1.50638	-0.766249	-1.54884	0.660826	-0.152905	-0.0761582	4.02625e+07	-5.08762e+07	-1.0112e+06	
46965	1.52073	-0.790042	-1.55272	0.677736	-0.174273	-0.0765829	3.16435e+07	-5.24498e+07	-8.54937e+06	
46994	1.54301	-0.813396	-1.55781	0.687229	-0.190008	-0.0791477	4.91835e+07	-5.15539e+07	-1.12502e+07	
47025	1.56206	-0.835046	-1.55851	0.697558	-0.200834	-0.0815102	4.20997e+07	-4.78604e+07	-1.55255e+06	
47085	1.59323	-0.868885	-1.56165	0.229746	0.270933	9.0521e-11	3.81208e+07	-4.695e+07	4.50221e+06	
47115	1.59323	-0.868885	-1.56165	0.267485	0.224453	0.00445719	3.81208e+07	-4.695e+07	4.50221e+06	
47145	1.61157	-0.882509	-1.56031	0.30065	0.183606	0.00837411	4.07021e+07	-3.02447e+07	2.97007e+06	
47174	1.62955	-0.897741	-1.556	0.333619	0.159108	0.0107799	3.99747e+07	-3.38576e+07	9.58146e+06	
47205	1.64395	-0.911061	-1.55908	0.3636	0.133715	0.017966	3.20518e+07	-2.96503e+07	-6.86869e+06	
47235	1.66157	-0.92415	-1.55836	0.385716	0.113256	0.0132266	3.92702e+07	-2.91738e+07	1.6079e+06	
47265	1.67681	-0.939214	-1.5608	0.410456	0.0948767	0.0142395	3.40146e+07	-3.36238e+07	-5.44588e+06	
47294	1.68967	-0.949243	-1.55917	0.428824	0.0767198	0.0112988	2.87477e+07	-2.2414e+07	3.65882e+06	
47325	1.70352	-0.951881	-1.56298	0.444348	0.0646162	0.0132745	3.0985e+07	-5.90344e+06	-8.52844e+06	
47355	1.71487	-0.959157	-1.56052	0.469446	0.0598345	0.00636649	2.54305e+07	-1.6298e+07	5.51099e+06	
47385	1.72724	-0.967245	-1.56166	0.487755	0.0480999	0.0103344	2.77451e+07	-1.8143e+07	-2.57267e+06	
47415	1.73385	-0.967507	-1.55788	0.504403	0.0372141	0.00879081	1.48503e+07	-588108	8.49091e+06	
47475	1.75725	-0.969683	-1.55409	0.127348	-0.000664458	9.61545e-11	2.89717e+07	-3.71406e+06	4.66797e+06	
47505	1.75725	-0.969683	-1.55409	0.155161	-0.00422996	0.00448125	2.89717e+07	-3.71406e+06	4.66797e+06	
47535	1.76992	-0.958399	-1.55146	0.181236	-0.00757261	0.00868243	2.85984e+07	2.54642e+07	5.92152e+06	
47564	1.77549	-0.954581	-1.54702	0.2044	0.0130534	0.0134789	1.25988e+07	8.62874e+06	1.00551e+07	
47595	1.77858	-0.945956	-1.54766	0.207046	0.0148654	0.0155904	6.99577e+06	1.95317e+07	-1.45949e+06	
47654	1.78243	-0.942102	-1.54494	0.0223808	-0.20262	-5.65769e-11	8.72764e+06	8.74268e+06	6.16846e+06	
47685	1.78551	-0.931449	-1.54291	0.0299738	-0.195014	0.00536656	7.00021e+06	2.41941e+07	4.61706e+06	
47715	1.78377	-0.914768	-1.54284	0.035644	-0.175417	0.00910638	-3.96754e+06	3.79354e+07	161982	
47744	1.78515	-0.898603	-1.54713	0.0327874	-0.148103	0.009223	3.14354e+06	3.68101e+07	-9.77539e+06	
47774	1.78054	-0.88359	-1.54625	0.0349564	-0.122704	0.00247798	-1.05016e+07	3.42328e+07	1.99649e+06	
47805	1.77388	-0.867226	-1.5478	0.0299156	-0.106273	0.0034363	-1.5215e+07	3.73706e+07	-3.54162e+06	
47865	1.77048	-0.847405	-1.54755	-0.111043	-0.392987	-3.78987e-11	-7.78326e+06	4.53521e+07	587120	
47895	1.76424	-0.821264	-1.55018	-0.117815	-0.353531	0.000510794	-1.42869e+07	5.9894e+07	-6.02142e+06	
47924	1.75685	-0.800101	-1.55428	-0.12853	-0.308611	-0.00400527	-1.69538e+07	4.85537e+07	-9.42322e+06	
47955	1.74894	-0.780927	-1.55699	-0.140228	-0.275109	-0.0105073	-1.81785e+07	4.4052e+07	-6.22702e+06	
47985	1.74102	-0.754716	-1.56168	-0.151681	-0.247356	-0.0144303	-1.82213e+07	6.03004e+07	-1.07865e+07	
48075	1.71949	-0.694617	-1.57573	-0.208855	-0.516302	-1.22218e-10	-2.28284e+07	7.59149e+07	-1.60715e+07	
48105	1.71949	-0.694617	-1.57573	-0.261588	-0.340939	-0.0371251	-2.28284e+07	7.59149e+07	-1.60715e+07	
48135	1.70589	-0.667708	-1.58204	-0.27871	-0.284003	-0.0491787	-3.14837e+07	6.22822e+07	-1.46037e+07	
48164	1.69084	-0.631477	-1.58809	-0.298544	-0.244765	-0.058379	-3.48718e+07	8.3975e+07	-1.40166e+07	
48194	1.6607	-0.567863	-1.59523	-0.317375	-0.199418	-0.065948	-6.99638e+07	1.47644e+08	-1.65729e+07	
48225	1.61934	-0.492211	-1.60889	-0.353057	-0.12412	-0.0744001	-9.61079e+07	1.75815e+08	-3.17482e+07	
48255	1.60334	-0.45066	-1.62237	-0.393422	-0.0502778	-0.0877344	-3.72423e+07	9.66977e+07	-3.13779e+07	
48285	1.58444	-0.416585	-1.63041	-0.406829	-0.0154666	-0.0990304	-4.404e+07	7.9404e+07	-1.87367e+07	
48314	1.58444	-0.416585	-1.63041	-0.460998	0.0822002	-0.122077	-4.404e+07	7.9404e+07	-1.87367e+07	
48344	1.56359	-0.375645	-1.64485	-0.467604	0.0941108	-0.124887	-4.87242e+07	9.56634e+07	-3.37399e+07	
48405	1.521	-0.28834	-1.67003	-0.273233	-0.701989	2.39605e-10	-4.98395e+07	1.06869e+08	-2.42702e+07	
48435	1.49785	-0.241965	-1.68609	-0.283699	-0.679546	-0.00509675	-5.42853e+07	1.08761e+08	-3.76609e+07	
48464	1.48028	-0.205999	-1.69171	-0.30487	-0.637129	-0.0197845	-4.12364e+07	8.44296e+07	-1.31918e+07	
48495	1.45727	-0.156635	-1.7056	-0.330849	-0.583939	-0.0280954	-5.40748e+07	1.15991e+08	-3.26387e+07	
48525	1.40904	-0.0565957	-1.7231	-0.340583	-0.56306	-0.0339703	-5.09347e+07	1.04725e+08	-1.86279e+07	
48555	1.40904	-0.0565957	-1.7231	-0.395592	-0.449957	-0.0540884	-5.09347e+07	1.04725e+08	-1.86279e+07	
48584	1.38478	-0.00816837	-1.73446	-0.436849	-0.36513	-0.069177	-5.72131e+07	1.14181e+08	-2.67859e+07	
48675	1.29465	0.15743	-1.7415	-0.322144	-0.870589	9.11134e-10	-7.5494e+07	1.28556e+08	9.43825e+06	
48705	1.26107	0.218195	-1.74171	-0.383294	-0.766459	0.00764498	-7.95611e+07	1.43985e+08	-484793	
48734	1.23377	0.281054	-1.74767	-0.421484	-0.697346	0.00741228	-6.4807e+07	1.49193e+08	-1.41493e+07	
48765	1.20047	0.341671	-1.74312	-0.44287	-0.648112	0.00274301	-7.91426e+07	1.44084e+08	1.07962e+07	
48795	1.1649	0.39444	-1.74306	-0.47611	-0.587597	0.0072774	-8.46581e+07	1.25568e+08	152117	
48825	1.12883	0.44533	-1.74795	-0.519285	-0.523557	0.00735498	-8.59259e+07	1.2123e+08	-1.1644e+07	
48854	1.09115	0.487676	-1.74529	-0.539908	-0.494462	0.00456042	-8.98862e+07	1.01037e+08	6.33415e+06	
48884	1.09115	0.487676	-1.74529	-0.642378	-0.37928	0.0117814	-8.98862e+07	1.01037e+08	6.33415e+06	
48915	1.05584	0.536211	-1.7404	-0.67204	-0.345938	0.0138716	-8.44639e+07	1.16075e+08	1.17023e+07	
48945	1.01343	0.583429	-1.72748	-0.715117	-0.28674	0.0198398	-1.01514e+08	1.13039e+08	3.09217e+07	
48974	0.975832	0.629401	-1.71921	-0.782116	-0.212134	0.0402482	-9.01003e+07	1.10161e+08	1.98302e+07	
49035	0.897129	0.737275	-1.70792	-0.41132	-0.788338	2.80273e-10	-1.0108e+08	1.19336e+08	2.73654e+07	
49065	0.851449	0.77423	-1.69447	-0.48713	-0.698836	0.0205241	-1.09858e+08	8.88763e+07	3.23636e+07	
49094	0.814893	0.808353	-1.69279	-0.576115	-0.626846	0.0467386	-8.80109e+07	8.21531e+07	4.03995e+06	
49125	0.772063	0.850138	-1.68876	-0.589317	-0.614523	0.0473446	-1.03339e+08	1.00817e+08	9.73216e+06	
49155	0.739808	0.886643	-1.69731	-0.617218	-0.587302	0.0499723	-7.79075e+07	8.8172e+07	-2.066e+07	
49185	0.708547	0.908915	-1.69879	-0.635916	-0.566141	0.0450138	-7.56011e+07	5.38603e+07	-3.58961e+06	
49215	0.658842	0.933459	-1.69945	-0.663132	-0.546751	0.0437216	-1.20333e+08	5.94203e+07	-1.59559e+06	
49244	0.615696	0.962662	-1.70372	-0.717282	-0.520012	0.0430036	-1.04564e+08	7.07735e+07	-1.03384e+07	
49274	0.615696	0.962662	-1.70372	-0.858443	-0.424468	0.0290467	-1.04564e+08	7.07735e+07	-1.03384e+07	
49305	0.56624	0.996468	-1.70398	-0.936866	-0.371388	0.0212929	-1.20105e+08	8.20979e+07	-630029	
49364	0.469645	1.04484	-1.70086	9.43228e-10	1.2335e-10	2.36852e-11	-1.18465e+08	6.74805e+07	-2.21547e+06	
49394	0.469645	1.04484	-1.70086	-0.21679	0.123489	-0.0040543	-1.18465e+08	6.74805e+07	-2.21547e+06	
49425	0.418357	1.06926	-1.70302	-0.277207	0.157904	-0.00518419	-1.25201e+08	5.9602e+07	-5.28943e+06	
49455	0.320361	1.10452	-1.70953	-0.35984	0.197242	-0.00867522	-2.39467e+08	8.61609e+07	-1.58935e+07	
