MS	x	y	z	vx	vy	vz	ax	ay	az	
8984	0.913779	0.558309	1.13275	-0.00129868	-0.0271717	2.11172e-10	-0.285661	0.596369	0.293294	
9434	0.906163	0.562547	1.13399	-0.000389582	-0.0287241	3.79325e-11	-0.198607	0.629212	0.316104	
9765	0.91594	0.558206	1.13231	-0.00153861	-0.0257583	1.40852e-10	-0.197935	0.675647	0.313005	
9974	0.914982	0.558447	1.12968	-0.00236382	-0.0263877	1.41689e-11	-0.275825	0.648463	0.236149	
10154	0.918197	0.555528	1.12499	-0.000287496	-0.0266175	1.53252e-10	-0.205841	0.682906	0.364886	
10215	0.921038	0.554703	1.12531	0.000340021	-0.0263616	1.89254e-10	-0.202497	0.674468	0.315424	
10334	0.924618	0.553532	1.12715	-0.000619072	-0.0273919	5.56871e-11	-0.201175	0.648045	0.265177	
10634	0.905555	0.564307	1.13291	-0.00134694	-0.0273935	3.04028e-11	-0.278103	0.680093	0.202686	
10844	0.902566	0.566914	1.13595	-0.000635678	-0.026208	8.26309e-11	-0.269006	0.67805	0.30604	
10875	0.902566	0.566914	1.13595	-0.00108915	-0.0273087	7.56052e-11	-0.22977	0.682182	0.315022	
11175	0.906523	0.5632	1.13769	-0.00156112	-0.0252579	8.56793e-11	-0.273814	0.678928	0.237998	
11324	0.903025	0.565669	1.13578	-0.000353176	-0.0260043	2.13754e-11	-0.27741	0.67977	0.237505	
11384	0.904507	0.565811	1.13573	-0.00058402	-0.0253286	3.26711e-11	-0.244309	0.655216	0.217808	
11715	0.899763	0.570398	1.13631	-0.00218995	-0.0280212	4.9193e-11	-0.251577	0.61446	0.234252	
11805	0.901925	0.568386	1.13664	-0.000372183	-0.0277217	1.05315e-10	-0.263139	0.679367	0.270038	
12195	0.905248	0.564851	1.13907	-0.00136611	-0.0204498	8.12817e-11	-0.246238	0.634675	0.270939	
12465	0.9014	0.567389	1.138	-0.00104738	-0.0156788	8.1004e-11	-0.286887	0.510567	0.300015	
12705	0.909663	0.563099	1.14345	-0.000823325	-0.0123258	1.10708e-10	-0.312024	0.481605	0.263591	
13244	0.905878	0.569039	1.13512	-0.000479095	-0.00717305	2.41327e-11	-0.237705	0.895673	0.201106	
13304	0.903923	0.572877	1.13568	-0.000451114	-0.00675425	7.32487e-11	0.00631811	0.710467	0.187817	
13724	0.911912	0.568884	1.13567	-0.000296078	-0.00443318	6.54316e-11	-0.419464	0.357764	0.272632	
14025	0.900484	0.570174	1.1394	-0.000218074	-0.00326532	1.57644e-11	-0.153986	0.514095	0.26274	
14294	0.895418	0.568254	1.1327	-0.00016973	-0.00254183	-1.98518e-10	-0.271337	0.453981	-0.315108	
14414	0.906139	0.564133	1.1395	-0.000148972	-0.00223136	-4.34744e-10	-0.39708	0.492179	-1.11473	
14834	0.941853	0.54225	1.12641	-0.0105768	0.00989879	-8.50448e-10	-0.296976	0.429291	-2.36236	
16694	0.949949	0.601126	0.365559	-0.0236178	0.0744349	7.08496e-10	-0.304865	0.545577	0.908329	
16755	0.947679	0.600739	0.364351	-0.0339138	0.0604659	8.34789e-11	-0.320295	0.417968	0.463772	
16994	0.961443	0.607933	0.376947	-0.0627814	-0.0307219	0.00224037	1.42663e+06	1.26644e+06	1.10873e+06	
17295	0.976073	0.61026	0.383445	0.000395745	0.0616463	6.63944e-11	-0.180426	0.529669	0.221315	
17835	0.963044	0.648735	0.374518	0.0059209	0.0146715	5.16159e-11	-0.227343	0.604097	0.286755	
18075	0.977045	0.634566	0.381174	0.00981993	0.00644493	1.53595e-10	-0.0704892	0.560084	0.269465	
18195	0.958396	0.645445	0.378744	0.002983	-0.00500964	2.46368e-10	-0.176362	0.494411	0.432224	
18255	0.955904	0.643804	0.380881	-0.00424161	-0.0191137	1.17654e-10	-0.135199	0.640157	0.326816	
18404	0.968964	0.651812	0.383515	-0.0101836	-0.0258605	1.51733e-10	-0.102914	0.438857	0.389059	
18465	0.965025	0.650546	0.384039	-0.0135277	-0.0310225	4.21507e-11	-0.165393	0.392785	0.351256	
18915	0.976905	0.628538	0.388479	-0.0285972	-0.0544686	1.57502e-10	-0.0669323	0.627643	0.276319	
19184	0.986168	0.626355	0.390181	0.0564815	-0.0288134	-0.00023361	-1.1551e+06	-538127	-255561	
19365	0.976773	0.619686	0.381125	-0.0364369	-0.0654659	7.78891e-11	-0.28269	0.572525	0.216359	
19395	0.976773	0.619686	0.381125	-0.0372256	-0.0638271	1.75575e-10	-0.0378374	0.598243	0.344265	
19424	0.976773	0.619686	0.381125	-0.0356857	-0.0729953	4.50152e-11	0.0194045	0.6209	0.375127	
20114	1.02366	0.546873	0.381958	-0.0483165	-0.0771451	3.42229e-11	-0.149202	0.460625	0.162966	
20144	1.02366	0.546873	0.381958	-0.0459832	-0.0760614	1.70531e-10	-0.0494486	0.549401	0.270685	
20204	1.02538	0.533264	0.384859	-0.0424678	-0.0663266	5.77732e-11	-0.0858826	0.570232	0.192577	
20265	1.03023	0.529877	0.390689	-0.0552256	-0.0675174	4.7856e-11	-0.0918925	0.557232	0.1994	
20654	1.05209	0.475454	0.400214	0.0874643	-0.0591257	-0.000986677	-1.38064e+06	-3.94933e+06	369360	
21015	1.08251	0.467768	0.386661	-0.0295605	-0.0427943	2.69652e-11	-0.126814	0.602692	0.299613	
21044	1.08251	0.467768	0.386661	-0.0260063	-0.0448744	1.81539e-10	-0.0724583	0.442416	0.378207	
21224	1.07309	0.466375	0.382702	-0.0285586	-0.0475118	1.30959e-10	-0.171128	0.490276	0.242517	
21344	1.07537	0.469575	0.383514	-0.0133769	-0.0335039	1.66692e-10	-0.233901	0.492404	0.222256	
21375	1.07537	0.469575	0.383514	-0.0123214	-0.0330063	7.30148e-11	-0.216429	0.514145	0.243383	
21434	1.07342	0.443565	0.3777	0.00147429	-0.0384933	1.44088e-11	-0.0977967	0.531373	0.0600369	
21465	1.07342	0.443565	0.3777	-0.0180618	-0.026949	1.1338e-10	-0.308352	0.506017	0.179968	
21794	1.07886	0.44411	0.372165	-0.00173546	-0.00539927	9.09705e-11	-0.0907967	0.529113	0.303235	
21884	1.09056	0.439015	0.374713	-0.00880293	-0.0128391	6.76594e-11	-0.14606	0.543584	0.451063	
22245	1.08587	0.436004	0.378623	0.0116746	0.0115678	7.63863e-11	-0.194066	0.5698	0.231474	
23145	1.14715	0.503487	0.375347	-0.0391402	0.393539	2.64897e-11	-0.419905	0.382637	0.220748	
23445	1.18986	0.617581	0.365011	-0.0864062	0.512248	1.45693e-10	-0.519679	0.397765	0.539604	
23505	1.19127	0.658664	0.367951	-0.0908953	0.541644	3.45548e-11	-0.459774	0.6126	0.230365	
23534	1.19127	0.658664	0.367951	-0.107061	0.539487	3.66753e-11	-0.531472	0.381451	0.407503	
23835	1.24698	0.83298	0.36176	-0.111103	0.605	5.01013e-11	-0.486595	0.458255	0.238578	
24255	1.31932	1.09512	0.357046	-0.111907	0.609471	6.79791e-11	-0.436493	0.530635	0.151065	
24675	1.39693	1.31514	0.367808	-0.116085	0.603144	3.0223e-11	-0.432412	0.428269	0.251858	
24915	1.48373	1.48407	0.366685	-0.0903974	0.550988	5.84775e-11	-0.469162	0.429675	0.243656	
24945	1.48373	1.48407	0.366685	-0.071618	0.537924	-3.03192e-11	-0.435705	0.561379	-0.0721886	
25574	1.62558	1.63279	0.367694	-0.633469	0.0219783	-0.00188579	1.02799e+07	3.85196e+06	593540	
25724	1.58448	1.82311	0.336308	-0.0158853	0.397741	1.41647e-10	-0.340273	0.634627	0.205285	
25905	1.5988	1.89918	0.328125	0.0159793	0.350746	1.6841e-10	-0.460131	0.41591	0.31187	
26054	1.61622	1.9624	0.318539	0.0196696	0.300221	4.4183e-11	-0.358984	0.541875	0.147277	
26175	1.61888	1.99505	0.322701	0.0388851	0.298438	8.20982e-11	-0.296748	0.402979	0.304067	
26355	1.59019	2.06982	0.292361	0.0890243	0.245009	1.49515e-10	-0.330922	0.479229	0.262307	
26415	1.56745	2.08515	0.289364	0.0911056	0.246923	6.84715e-11	-0.232711	0.589146	0.380397	
26445	1.56745	2.08515	0.289364	0.0931021	0.232296	4.09644e-11	-0.210924	0.703383	0.22758	
26594	1.54835	2.14603	0.285568	0.144346	0.177391	2.13073e-10	-0.122235	0.555373	0.443902	
26715	1.52462	2.16847	0.281549	0.22627	0.13188	1.3269e-10	-0.292201	0.774464	0.192305	
27135	1.41845	2.22751	0.258629	0.331159	0.052335	2.46931e-10	-0.248542	0.672984	0.51444	
27824	1.16929	2.30601	0.245636	0.234862	0.0662884	1.51247e-10	-0.148025	0.700142	0.265345	
27974	1.15951	2.32231	0.239287	0.133398	0.0452237	5.45949e-11	-0.166364	0.487159	0.139987	
28005	1.15951	2.32231	0.239287	0.109211	0.0438624	3.49015e-11	-0.149573	0.495551	0.232676	
28065	1.14408	2.32752	0.233543	0.0772581	0.0382407	1.35485e-10	-0.186551	0.536651	0.237692	
28094	1.14408	2.32752	0.233543	0.0729889	0.0309278	1.10696e-11	-0.106678	0.586865	0.184493	
28215	1.10245	2.33261	0.21094	0.0331786	0.0203765	2.28112e-10	-0.0842454	0.474945	0.304149	
28364	1.08272	2.33663	0.213855	-0.00476914	0.0132667	7.81144e-11	-0.0514094	0.516631	0.289313	
28425	1.08672	2.33681	0.214562	0.0154496	-0.000978397	2.8467e-10	-0.0972584	0.464258	0.395375	
28605	1.07999	2.3457	0.222307	-0.00315892	-0.0098747	1.5695e-11	-0.111401	0.419432	0.174389	
29354	1.09735	2.32933	0.225282	-0.00112408	-0.00608206	1.44045e-10	-0.162019	0.297673	0.342963	
30225	1.24558	2.26862	0.251702	-0.291117	-0.0690295	5.42689e-11	-0.112134	0.292816	0.452241	
30434	1.29875	2.23648	0.256969	-0.335774	-0.0724434	6.78094e-11	-0.218274	0.266467	0.161451	
30794	1.43401	2.18828	0.268433	-0.352587	-0.0829225	9.21313e-11	-0.0526678	0.39263	0.25592	
30824	1.43401	2.18828	0.268433	-0.357334	-0.0819976	2.38289e-11	-0.212256	0.24654	0.264765	
31305	1.54715	2.12601	0.265474	-0.0901973	-0.0444396	4.25442e-11	-0.162146	0.526858	0.236357	
31335	1.54715	2.12601	0.265474	-0.0821537	-0.0409196	1.02391e-10	-0.164386	0.43837	0.310274	
31364	1.54715	2.12601	0.265474	-0.0670758	-0.0336387	2.47485e-11	-0.113676	0.40028	0.206237	
31425	1.56428	2.11449	0.280283	-0.0444882	-0.0300989	2.19221e-11	-0.128653	0.52972	0.104391	
31664	1.59157	2.11245	0.270952	-0.0069038	-0.0132661	3.1396e-11	-0.0497444	0.448567	0.261633	
31695	1.59157	2.11245	0.270952	-0.0132529	-0.00876164	5.79618e-11	-0.165343	0.549486	0.241508	
31995	1.60969	2.10822	0.280092	-0.00714562	0.000895696	1.14643e-10	-0.17553	0.629949	0.382144	
32144	1.62001	2.09852	0.284746	-0.0079241	-0.00100778	9.9079e-11	-0.171786	0.4059	0.300239	
32175	1.62001	2.09852	0.284746	-0.0112857	-0.000209291	2.62183e-11	-0.106942	0.602956	0.291315	
32265	1.61824	2.09839	0.283792	0.00107535	0.000998437	1.10309e-11	-0.244731	0.625438	0.0525279	
32775	1.60752	2.08044	0.288706	0.0176591	0.0141078	4.87982e-11	-0.239889	0.328467	0.232372	
32835	1.61045	2.07897	0.287172	0.0269234	0.0181725	5.25639e-12	-0.198303	0.621874	0.0146011	
32864	1.61045	2.07897	0.287172	0.0426788	0.0249763	1.20733e-11	-0.233181	0.768219	0.044716	
32894	1.61045	2.07897	0.287172	0.040406	0.0312647	7.4597e-11	-0.113543	0.541825	0.310821	
33254	1.58063	2.10877	0.287403	0.0528326	0.114056	7.84164e-11	-0.246361	0.50532	0.261388	
33315	1.57173	2.11338	0.284167	0.0626867	0.134613	7.28696e-11	-0.289861	0.480346	0.404831	
33374	1.56161	2.12276	0.28425	0.0532832	0.151158	2.57662e-11	-0.332821	0.531735	0.214719	
33404	1.56161	2.12276	0.28425	0.0532832	0.151158	2.19013e-10	-0.332821	0.531735	0.214719	
33885	1.50749	2.21056	0.251355	-0.223966	0.00583362	-0.0292161	-7.93638e+06	7.96667e+06	-3.45388e+06	
33975	1.49746	2.21981	0.249272	-0.0038446	0.344149	6.46853e-11	-0.518354	0.498065	0.154013	
34275	1.54927	2.37052	0.249773	-0.024376	0.37537	2.00263e-10	-0.418829	0.389383	0.445029	
34334	1.54587	2.39578	0.247752	-0.0191436	0.38334	2.8219e-10	-0.421427	0.475461	0.391931	
34485	1.56983	2.47099	0.243696	-0.0438548	0.391706	1.28837e-10	-0.281445	0.587234	0.390415	
34694	1.57183	2.55086	0.240141	-0.436351	-0.0487439	0.00131653	-4.66575e+06	1.3085e+07	-678107	
34845	1.57114	2.57973	0.217192	-0.0709732	0.354816	4.96737e-11	-0.44547	0.594396	0.137983	
35085	1.60668	2.68449	0.218785	-0.0923838	0.276837	5.48594e-11	-0.293542	0.635339	0.304774	
35114	1.60668	2.68449	0.218785	-0.0887194	0.261472	5.19805e-11	-0.310688	0.631852	0.288781	
35505	1.68143	2.81413	0.215839	-0.0880139	0.133693	1.13177e-10	-0.427799	0.434614	0.31438	
35534	1.68143	2.81413	0.215839	-0.0775586	0.118777	7.59807e-11	-0.175904	0.544033	0.28141	
35565	1.68143	2.81413	0.215839	-0.0638793	0.103768	2.70134e-11	-0.279638	0.573667	0.225112	
36165	1.71482	2.84263	0.226765	-0.00678552	-0.041256	1.15486e-10	-0.149122	0.690184	0.256637	
36255	1.71709	2.83843	0.225021	-0.00810759	-0.0513688	1.04535e-10	-0.0673337	0.707568	0.165929	
36434	1.72016	2.82263	0.230061	0.00250162	-0.0579472	1.52979e-11	-0.215362	0.47155	0.254966	
36494	1.72484	2.81965	0.232618	-0.0027703	-0.0505913	6.54202e-11	-0.182366	0.55739	0.218067	
36645	1.73304	2.81134	0.235746	0.019387	-0.0437368	4.87414e-11	-0.206397	0.549173	0.116051	
36735	1.72487	2.80263	0.234308	0.0169527	-0.0342145	1.80982e-10	-0.115532	0.590787	0.232029	
37245	1.71266	2.78824	0.240662	0.0362602	-0.00621956	3.63114e-11	-0.226289	0.458997	0.172912	
37304	1.7161	2.79218	0.244453	0.0400711	-0.00161006	2.26689e-11	-0.180432	0.479219	0.083959	
37365	1.70854	2.78584	0.237853	0.0504433	-0.0112946	8.22628e-11	-0.200378	0.555588	0.274209	
37904	1.65829	2.79041	0.218917	0.181485	-0.0602275	3.47915e-11	-0.116857	0.72036	0.231943	
38054	1.58692	2.76267	0.208102	0.269747	-0.052985	2.44978e-11	-0.188041	0.603088	0.204148	
38264	1.56552	2.7663	0.204847	0.307089	-0.0532938	1.95786e-10	-0.0959907	0.76754	0.283748	
38355	1.52391	2.76097	0.198585	0.347161	-0.0533258	1.10611e-10	-0.222628	0.577249	0.368702	
38534	1.43308	2.74202	0.184964	0.384166	-0.0283813	5.50272e-11	-0.0374543	0.73538	0.262034	
38684	1.38463	2.75828	0.183508	0.417197	-0.00820327	9.96993e-11	-0.157964	0.804886	0.132932	
38834	1.31766	2.74883	0.173317	0.442444	0.0431159	2.62809e-11	-0.207798	0.718174	0.219007	
38955	1.28031	2.76277	0.167789	0.429029	0.0743602	2.25472e-11	-0.0618208	0.864589	0.0835082	
39405	1.08157	2.85827	0.140909	0.329434	0.266896	5.44454e-11	-0.310451	0.652347	0.362969	
39584	0.975129	2.93101	0.10627	0.320405	0.367126	1.05774e-10	-0.271013	0.60386	0.503686	
39645	0.966773	2.94226	0.102123	0.295466	0.370065	1.0979e-10	-0.315525	0.717311	0.261405	
39675	0.966773	2.94226	0.102123	0.28675	0.384433	1.1705e-10	-0.250794	0.683694	0.433519	
39705	0.966773	2.94226	0.102123	0.29835	0.382234	8.13889e-11	-0.203683	0.789611	0.387566	
40394	0.816158	3.2777	0.0500947	-0.00367895	0.208613	3.38867e-11	-0.199615	0.641263	0.102687	
40424	0.816158	3.2777	0.0500947	-0.00740128	0.175193	9.49804e-11	-0.260429	0.555378	0.243539	
40454	0.816158	3.2777	0.0500947	-0.0186752	0.160565	2.31088e-11	-0.342796	0.635889	0.110042	
40485	0.816158	3.2777	0.0500947	-0.0235736	0.140848	3.08593e-13	-0.189859	0.64327	0.00257161	
40515	0.816158	3.2777	0.0500947	-0.0379472	0.128989	4.21259e-12	-0.171509	0.618833	0.0702099	
40725	0.834498	3.36028	0.0297492	-0.0785079	0.0364668	2.30208e-11	-0.134994	0.523355	0.109623	
40875	0.838198	3.36716	0.0232564	-0.0598388	0.00219898	1.58428e-10	-0.130658	0.550481	0.240042	
40965	0.849563	3.3738	0.0240765	-0.0425265	-0.0222972	2.68109e-10	-0.121509	0.660436	0.446848	
40994	0.849563	3.3738	0.0240765	-0.0328553	-0.0235614	9.39741e-11	-0.109854	0.669831	0.391559	
41294	0.883137	3.36104	0.0307095	-0.00267062	-0.0563686	7.82155e-11	-0.00918196	0.628165	0.153364	
41385	0.892129	3.35377	0.0362786	-0.00221904	-0.0659503	1.08538e-10	-0.159748	0.731768	0.361794	
41445	0.894796	3.35684	0.0368517	0.0139086	-0.0542124	3.87772e-11	-0.225847	0.704418	0.258515	
41474	0.894796	3.35684	0.0368517	0.0146353	-0.0567736	8.37416e-11	-0.0824982	0.651239	0.232616	
42285	0.875604	3.30788	0.0460961	-0.0293503	-0.0827134	5.25493e-11	-0.168023	0.623807	0.350329	
42735	0.872514	3.24619	0.0493778	-0.0617884	-0.11593	1.2907e-11	-0.152819	0.606444	0.215117	
42974	0.882723	3.21299	0.0673178	-0.0256995	-0.0920272	1.7349e-11	-0.0634766	0.496184	0.144575	
43245	0.874182	3.16815	0.0714859	0.0101856	-0.0829074	8.92586e-12	-0.0585562	0.712815	0.027048	
43634	0.883172	3.13615	0.087076	0.0505384	-0.0829551	2.95089e-11	-0.176557	0.603598	0.245908	
43994	0.871047	3.10446	0.0931997	-0.0149281	-0.0407957	2.03006e-10	-0.0625235	0.533875	0.375937	
44175	0.865557	3.08492	0.0889218	-0.0215982	-0.0078003	3.8012e-11	-0.170623	0.651664	0.115188	
44235	0.868503	3.08769	0.0913012	-0.0257004	0.00569857	5.46069e-11	-0.0775013	0.571136	0.260033	
45584	0.942187	3.10822	0.0871295	-0.0144126	0.0191619	1.70324e-11	-0.156049	0.50402	0.113549	
45795	0.949504	3.10574	0.0961933	-0.0208981	0.00301011	1.59875e-11	-0.11563	0.623198	0.177639	
46245	0.952281	3.09502	0.1018	0.0157632	-0.0882573	2.90094e-11	-0.15973	0.715419	0.241745	
46275	0.952281	3.09502	0.1018	0.00906144	-0.0858784	9.85953e-11	-0.0896559	0.643743	0.205407	
46395	0.961933	3.09018	0.10618	0.0352079	-0.120524	6.10736e-11	-0.185214	0.708248	0.254473	
47175	0.804183	2.92423	0.11078	0.2336	-0.214504	2.63899e-10	0.0276248	0.61067	0.314165	
47654	0.692996	2.85923	0.0989798	0.308305	-0.117801	1.12795e-10	-0.0956986	0.513181	0.289217	
47684	0.692996	2.85923	0.0989798	0.308305	-0.117801	3.7309e-10	-0.0956986	0.513181	0.289217	
47745	0.690647	2.86196	0.0980409	0.286214	-0.0897183	1.18464e-10	-0.0870704	0.461264	0.207831	
48045	0.523009	2.79843	0.0744226	0.317341	0.0131056	4.40811e-11	-0.0883664	0.655982	0.20991	
48585	0.347274	2.85999	0.0451897	0.309645	0.132438	9.41856e-11	-0.0783029	0.744062	0.261627	
48825	0.269278	2.90811	0.0332528	0.304715	0.234225	2.10458e-10	-0.219512	0.684942	0.305012	
48975	0.235971	2.9499	0.0158668	0.282092	0.269251	7.37079e-12	-0.274927	0.611607	0.245693	
49004	0.235971	2.9499	0.0158668	0.269292	0.265747	3.26143e-11	-0.14338	0.605374	0.271786	
49244	0.193983	3.04058	-0.011013	0.198832	0.287368	5.23722e-11	-0.366017	0.507706	0.290957	
49365	0.176016	3.10322	-0.022645	0.129443	0.280837	5.31044e-11	-0.212272	0.559017	0.35403	
49754	0.190653	3.22459	-0.0376273	-0.0349068	0.165741	8.33366e-11	-0.171875	0.498864	0.308654	
49784	0.190653	3.22459	-0.0376273	-0.0526141	0.148606	3.36948e-11	-0.188427	0.515286	0.28079	
50024	0.224736	3.27517	-0.0418921	-0.181895	0.078775	1.63701e-10	-0.100349	0.302318	0.419746	
50055	0.224736	3.27517	-0.0418921	-0.189854	0.0560714	9.67766e-11	-0.0774374	0.448327	0.358432	
50115	0.235613	3.28313	-0.0459849	-0.230218	0.0441739	3.88249e-11	-0.140091	0.440404	0.323541	
50235	0.27458	3.29157	-0.0396813	-0.303572	-0.0156682	6.2367e-11	0.0486666	0.342594	0.41578	
50384	0.353896	3.29653	-0.0291586	-0.366661	-0.0844301	1.97374e-10	-0.0373564	0.317412	0.548261	
50534	0.394289	3.27103	-0.0183956	-0.430668	-0.205729	1.7886e-10	-0.113903	0.289759	0.331223	
50565	0.394289	3.27103	-0.0183956	-0.47247	-0.247162	5.99174e-11	0.0517735	0.134286	0.499312	
50774	0.494864	3.20215	0.00436589	-0.564591	-0.364768	1.03536e-11	0.0307249	0.341275	0.0862803	
50834	0.533414	3.191	0.0163698	-0.554902	-0.429121	3.49939e-11	0.0832838	0.205021	0.0897279	
50865	0.533414	3.191	0.0163698	-0.525735	-0.427669	3.21956e-11	0.156201	0.325426	0.107319	
51254	0.668359	2.92617	0.0305641	-0.461281	-0.603984	1.06462e-10	0.331462	0.218394	0.591458	
51285	0.668359	2.92617	0.0305641	-0.450578	-0.623632	2.69159e-10	0.181353	0.337128	0.472208	
51704	0.832275	2.59185	0.0863737	-0.201856	-0.566174	3.78782e-11	0.311144	0.137827	0.420869	
51944	0.880225	2.32057	0.104375	-0.0714271	-0.650022	-1.32829e-11	0.176623	0.379416	-0.0402511	
52154	0.88111	2.20058	0.132642	-0.0113357	-0.529691	6.27931e-11	0.0868684	0.481752	0.174425	
52334	0.880196	2.11857	0.152129	0.0336975	-0.354589	1.39803e-10	0.0223671	0.410452	0.291256	
52635	0.879297	1.96928	0.164794	0.0257565	-0.0681178	-1.80614e-11	-0.213997	0.596732	-0.301023	
52665	0.879297	1.96928	0.164794	0.0298985	-0.0597153	2.44123e-11	-0.213533	0.330054	0.0739766	
52785	0.871778	1.94115	0.166034	0.0291602	-0.0360368	2.36554e-11	-0.224247	0.367174	0.0606549	
52875	0.894176	1.95107	0.179265	0.0216516	-0.0137669	3.10935e-11	-0.199741	0.608485	0.148064	
53235	0.869395	1.93115	0.159006	0.00950908	-0.0212297	5.60062e-11	-0.210194	0.563441	0.311146	
53445	0.849643	1.91029	0.134226	0.00225385	-0.0191394	2.86282e-11	-0.126359	0.361182	0.477137	
53504	0.848609	1.9086	0.134306	0.0010672	-0.0163899	1.07784e-10	-0.273167	0.309193	0.3992	
53535	0.848609	1.9086	0.134306	0.00297579	-0.015848	5.81796e-11	-0.13367	0.301899	0.32322	
53594	0.870514	1.92811	0.137172	0.000734159	-0.00850031	4.49906e-11	-0.183777	0.474397	0.374922	
53835	0.856921	1.91804	0.138608	-0.0169014	0.0229537	5.4121e-11	-0.208298	0.339996	0.257719	
53985	0.858731	1.92106	0.129229	-0.00312238	0.0795002	7.0428e-11	-0.158949	0.324704	0.391266	
54044	0.854886	1.92102	0.124184	1.99013e-05	0.0925858	2.06164e-10	-0.248204	0.608752	0.286339	
54225	0.833188	1.93054	0.113704	0.0306969	0.155876	1.07805e-10	-0.206605	0.381856	0.399278	
54314	0.826256	1.92755	0.107543	0.064652	0.189624	3.62799e-11	-0.337133	0.456087	0.302333	
54345	0.826256	1.92755	0.107543	0.0702826	0.190438	7.03449e-11	-0.346652	0.565358	0.260537	
54614	0.77525	1.96176	0.112579	0.13998	0.274596	1.05499e-10	-0.296406	0.48556	0.390738	
55005	0.692844	2.12449	0.0810455	0.173882	0.342672	2.73846e-12	-0.462134	0.556437	0.0912821	
55275	0.665345	2.23024	0.073614	0.196489	0.36202	2.99103e-10	-0.458989	0.499365	0.553894	
55665	0.543943	2.36053	0.0486621	0.135729	0.271513	4.16386e-11	-0.378877	0.461887	0.231326	
56085	0.514519	2.47633	0.0275886	0.0160614	0.0593105	1.13979e-10	-0.30504	0.447423	0.474911	
56204	0.510806	2.4916	0.0301553	0.0141443	0.0475266	2.32876e-11	-0.127295	0.493665	0.155251	
56355	0.496753	2.49421	0.0300968	-0.00407907	0.0405379	9.46303e-11	-0.203385	0.362386	0.22531	
56504	0.515018	2.50896	0.0323305	-0.144102	0.0910533	0.0109057	1.78832e+07	1.9148e+07	-5.08082e+06	
56535	0.515018	2.50896	0.0323305	-0.000635254	0.024629	8.27911e-12	-0.177669	0.41136	0.0919902	
56745	0.499302	2.4998	0.0235523	-0.00366044	-0.00672957	4.2017e-11	-0.165694	0.446113	0.200081	
56805	0.500642	2.49423	0.023225	0.00292586	-0.0150164	1.66615e-10	-0.0573343	0.523357	0.277691	
57345	0.518815	2.4883	0.0184945	-0.0314143	-0.0751883	9.95935e-11	0.0509764	0.471	0.414973	
57524	0.531287	2.47369	0.0233849	-0.0244693	-0.0978558	1.76628e-10	-0.0892182	0.341689	0.346329	
57585	0.530132	2.464	0.0303526	-0.0486095	-0.107518	1.01591e-10	-0.220916	0.390765	0.423294	
58244	0.664623	2.36408	0.0676024	-0.240184	-0.127666	7.59322e-11	-0.0872472	0.245384	0.253107	
58425	0.679479	2.3105	0.0662172	0.192539	-0.160654	0.00582628	1.95807e+07	-1.10869e+07	7.40305e+06	
58605	0.75675	2.28809	0.0930655	-0.376482	-0.141357	3.32605e-12	-0.187016	0.255838	0.0369562	
58875	0.863778	2.21241	0.104886	-0.459053	-0.179605	8.73287e-11	-0.0243652	0.123226	0.415851	
59084	0.97618	2.17694	0.121243	-0.466129	-0.143941	6.32193e-11	-0.283973	0.200385	0.191574	
59145	0.990987	2.17403	0.121624	-0.524504	-0.14065	1.34804e-10	-0.245642	0.205608	0.236498	
59234	1.05637	2.15619	0.12783	-0.537743	-0.192685	2.83995e-11	-0.013997	0.288586	0.18933	
59475	1.23023	2.08259	0.156487	-0.607064	-0.175108	3.12553e-10	-0.0809425	0.139803	0.347281	
59534	1.24845	2.07723	0.157366	-0.6455	-0.215065	6.25927e-11	0.0441296	0.174451	0.260803	
60105	1.75431	1.96853	0.215495	-0.723729	-0.33738	1.23458e-10	-0.077148	0.0252717	0.342939	
60164	1.81089	1.95345	0.219959	-0.72504	-0.30353	1.53655e-10	-0.137762	0.0776892	0.341456	
60284	1.89819	1.93766	0.224929	-0.7069	-0.262147	4.84363e-11	-0.117864	0.1518	0.161454	
60405	2.00495	1.92854	0.24215	-0.640534	-0.258418	3.10761e-11	-0.231764	0.120747	0.129484	
60494	2.06488	1.92912	0.233944	-0.616952	-0.255263	1.23895e-10	-0.139074	0.144349	0.37544	
60555	2.11142	1.91598	0.221733	-0.574233	-0.216	1.36659e-10	-0.21856	0.142028	0.267959	
60795	2.24179	1.88784	0.248606	-0.295461	-0.0519776	8.28064e-12	-0.183122	0.270721	0.276021	
60945	2.2568	1.88384	0.242117	-0.414117	0.0378139	-0.0974488	4.71518e+07	6.99015e+07	-1.26163e+07	
61214	2.33298	1.8832	0.248167	-0.00930023	0.0688519	8.52636e-11	-0.228871	0.464922	0.129187	
61305	2.34403	1.89892	0.26529	-0.000219451	0.0513914	4.2e-11	-0.288173	0.513327	0.14	
61365	2.33259	1.87835	0.258891	0.0178121	0.0373194	1.07853e-11	-0.215145	0.497272	0.0898776	
61395	2.33259	1.87835	0.258891	0.0178121	0.0373194	9.16751e-11	-0.215145	0.497272	0.0898776	
61424	2.33259	1.87835	0.258891	0.0137444	0.0509586	4.39705e-11	-0.286214	0.535486	0.0862166	
61454	2.33259	1.87835	0.258891	-0.000987455	0.0322342	6.65916e-12	-0.35934	0.481188	0.0246636	
61544	2.34922	1.90265	0.262767	-0.0379126	-0.0350336	-0.0245134	-4.03686e+07	-3.18846e+06	-3.18524e+07	
61725	2.35801	1.90384	0.26466	-0.00737427	-0.00234844	8.53681e-11	-0.332947	0.633287	0.203257	
61754	2.35801	1.90384	0.26466	0.00206319	-0.00381262	4.92335e-11	-0.141923	0.511123	0.12624	
61785	2.35801	1.90384	0.26466	-0.0076842	-0.0120938	9.74958e-11	-0.23422	0.533152	0.324986	
62054	2.3557	1.8944	0.270481	-0.025925	-0.0240784	2.9577e-11	-0.0952914	0.591093	0.328633	
62175	2.35746	1.89753	0.265395	-0.0197391	-0.0267268	4.28324e-11	-0.264721	0.492866	0.356937	
62415	2.36959	1.89816	0.264189	0.0817669	-0.0167821	3.08508e-11	-0.168312	0.579843	0.114262	
62744	2.28256	1.86321	0.252492	0.209597	0.0301687	1.42148e-10	-0.114302	0.60057	0.296142	
62864	2.27556	1.86736	0.256304	0.232229	0.0513141	8.43171e-11	-0.103344	0.659481	0.165328	
63344	2.16052	1.89355	0.245059	0.163167	0.169495	1.06546e-11	-0.177533	0.57115	0.177576	
64215	2.07703	2.09828	0.203336	-0.0669427	0.28416	8.3065e-11	-0.347766	0.502899	0.106494	
64395	2.11372	2.16382	0.194532	-0.105626	0.253908	5.0733e-10	-0.351521	0.530195	0.583138	
64485	2.12543	2.18679	0.197779	-0.141982	0.187333	4.69918e-11	-0.394108	0.415202	0.195799	
64875	2.22915	2.30062	0.187945	-0.272889	0.100391	2.43349e-10	-0.426615	0.365717	0.311986	
64964	2.25336	2.3204	0.19603	-0.231013	0.0587142	1.60264e-10	-0.316689	0.342143	0.267107	
65115	2.32394	2.36183	0.198095	-0.327363	0.0336791	2.25963e-10	-0.34132	0.304219	0.502139	
65804	2.58806	2.44657	0.218916	-0.138743	0.0208033	-2.15222e-11	-0.280301	0.393145	-0.0652187	
65835	2.58806	2.44657	0.218916	-0.128823	0.0149858	1.64837e-11	-0.273066	0.550155	0.109891	
65954	2.62481	2.46251	0.225206	-0.0818892	0.0208979	1.92622e-11	-0.401351	0.33326	0.160518	
66224	2.66433	2.46727	0.233226	-0.026486	0.000601955	9.37885e-11	-0.292262	0.395231	0.156314	
66434	2.67947	2.46948	0.234288	-0.00959848	-0.0197474	1.7871e-10	-0.32202	0.52212	0.397134	
66734	2.68947	2.46008	0.228879	0.0254454	-0.026342	4.48018e-11	-0.236879	0.507979	0.373348	
66824	2.68	2.45151	0.227315	0.0311235	-0.00712647	7.99682e-11	-0.0466304	0.550656	0.205047	
66884	2.6813	2.45005	0.227533	0.0470365	-0.0210154	7.86585e-11	-0.210771	0.47769	0.374564	
66974	2.67016	2.44592	0.223946	0.054547	0.00132518	3.5275e-11	-0.341643	0.712345	0.117583	
67035	2.66387	2.44369	0.224239	0.0638409	0.0025847	1.06618e-10	-0.263852	0.496599	0.296162	
67305	2.61265	2.41415	0.212574	0.146218	0.0366207	1.97038e-12	-0.123342	0.710115	0.0218931	
67545	2.56669	2.40675	0.205569	0.159191	0.0867546	1.51366e-11	-0.318991	0.710004	0.126138	
67575	2.56669	2.40675	0.205569	0.157546	0.0916631	4.45346e-11	-0.0704348	0.643639	0.164943	
67695	2.52339	2.41946	0.202133	0.177091	0.10933	1.08687e-10	-0.332077	0.616956	0.36229	
67725	2.52339	2.41946	0.202133	0.196335	0.120525	6.20099e-11	-0.25139	0.660195	0.2067	
67905	2.48564	2.43518	0.192995	0.222312	0.120918	9.31794e-11	-0.306553	0.666361	0.221856	
68144	2.4335	2.47466	0.172165	0.194811	0.138848	8.98851e-11	-0.349932	0.561328	0.166454	
68175	2.4335	2.47466	0.172165	0.204298	0.162899	8.88227e-11	-0.315425	0.595206	0.197384	
68205	2.4335	2.47466	0.172165	0.224164	0.149656	1.84314e-12	-0.429649	0.752564	0.0204793	
68295	2.40771	2.50801	0.171763	0.226511	0.170959	1.90659e-10	-0.289841	0.581433	0.45395	
68355	2.38481	2.51821	0.163365	0.208246	0.18303	1.88841e-10	-0.299607	0.630037	0.299748	
68445	2.35694	2.54952	0.154607	0.229023	0.195024	7.47464e-11	-0.315362	0.663762	0.415258	
68535	2.34504	2.57712	0.151018	0.214727	0.198	2.22691e-10	-0.541905	0.553457	0.436648	
68685	2.30498	2.61518	0.140703	0.168294	0.20958	1.04171e-10	-0.326241	0.583556	0.267104	
68835	2.28856	2.65277	0.146801	0.10619	0.232609	8.90256e-11	-0.363417	0.68548	0.197835	
69225	2.27904	2.77946	0.14712	-0.0544582	0.194131	1.23783e-10	-0.427551	0.450681	0.242713	
69284	2.27794	2.78724	0.143643	-0.0575032	0.183126	3.37789e-10	-0.246615	0.601851	0.417024	
69375	2.278	2.81862	0.135526	-0.0905489	0.170238	3.23781e-10	-0.183202	0.588694	0.490578	
69435	2.29818	2.84765	0.137078	-0.106655	0.126573	2.2314e-10	-0.571581	0.488031	0.371899	
69465	2.29818	2.84765	0.137078	-0.11496	0.127523	6.25609e-11	-0.476832	0.420978	0.417073	
69495	2.29818	2.84765	0.137078	-0.122652	0.142208	3.52917e-11	-0.26091	0.601554	0.294097	
69975	2.34757	2.95582	0.135083	-0.0346557	0.0474609	1.29291e-10	-0.0959121	0.380009	0.391792	
70005	2.34757	2.95582	0.135083	-0.0291341	0.0401752	2.03779e-11	-0.274615	0.424845	0.339632	
70184	2.36942	2.97152	0.153431	-0.00682238	0.010258	3.60853e-12	-0.28884	0.430888	0.00522975	
70215	2.36942	2.97152	0.153431	0.00512768	0.00137677	5.30233e-11	-0.102247	0.567818	0.135957	
70305	2.36996	2.97535	0.159064	0.00862867	-0.015184	1.75846e-12	-0.294466	0.67047	0.0117231	
70515	2.36882	2.96435	0.165542	-0.00258779	-0.0294554	3.09838e-12	-0.216086	0.58457	0.0103279	
70574	2.3713	2.95974	0.169887	0.0206993	-0.0483659	2.19656e-12	-0.198136	0.636211	0.0122031	
70785	2.386	2.95281	0.171366	0.0221793	-0.0426229	1.8933e-10	-0.107203	0.391084	0.242731	
71145	2.38586	2.91369	0.169782	0.0157949	-0.0454776	5.00479e-11	-0.230304	0.528331	0.166826	
71324	2.38347	2.90042	0.166251	0.0122397	-0.0421202	1.21393e-11	-0.219918	0.590508	0.101161	
71505	2.37532	2.8828	0.160882	0.00503857	-0.044032	4.15597e-11	-0.263406	0.491844	0.125939	
71534	2.37532	2.8828	0.160882	-0.00186866	-0.0329086	3.74896e-11	-0.13359	0.506303	0.13885	
71655	2.38501	2.88148	0.15134	0.00396377	-0.0217578	7.45165e-11	-0.170499	0.463246	0.17742	
71894	2.35846	2.86256	0.135023	0.0553824	0.03344	4.14225e-11	-0.258346	0.4321	0.230125	
72014	2.34543	2.86444	0.130623	0.0858368	0.064032	2.3962e-11	-0.316175	0.571644	0.133122	
72255	2.30286	2.88366	0.12007	0.151576	0.134862	8.01911e-11	-0.211474	0.577555	0.33413	
72675	2.19387	2.9543	0.111891	0.283079	0.252346	1.64127e-11	-0.348724	0.724346	0.0364726	
73215	1.95428	3.15212	0.102752	0.306557	0.259389	1.95914e-11	-0.319851	0.71565	0.0408153	
73275	1.93899	3.16546	0.0996554	0.29132	0.294727	-5.26697e-11	-0.1683	0.929646	-0.0702262	
73485	1.9044	3.26843	0.101709	0.25279	0.456375	4.23362e-11	-0.0538634	0.550055	0.201601	
73515	1.9044	3.26843	0.101709	0.243396	0.448584	7.03545e-11	-0.170864	0.678157	0.0977146	
74025	1.82464	3.45351	0.0202038	-0.028362	0.125385	2.89882e-11	-0.241346	0.434865	0.483137	
74895	1.85496	3.52212	0.0406887	-0.00608499	0.028646	1.06812e-10	-0.0883391	0.542403	0.169543	
75224	1.86139	3.5379	0.0496514	-0.0159061	0.0282144	7.61421e-11	-0.00910985	0.50818	0.253807	
75314	1.85665	3.53893	0.0445259	-0.0158159	0.03345	1.64768e-10	-0.0524585	0.487612	0.274614	
75344	1.85665	3.53893	0.0445259	-0.0232382	0.028677	1.53735e-10	-0.0756163	0.497993	0.366036	
75554	1.88655	3.54759	0.0547204	-0.061258	0.0040239	2.00043e-11	-0.130931	0.52732	0.133362	
75824	1.90467	3.54056	0.0603983	-0.0891722	-0.0207511	-1.46923e-11	-0.133995	0.58041	-0.061218	
76365	1.94619	3.51027	0.0557029	-0.0414979	-0.142313	1.60086e-11	-0.121907	0.527482	0.0889367	
76484	1.9538	3.47868	0.0449583	-0.0176713	-0.138743	3.42202e-11	-0.203945	0.467547	0.142584	
76724	1.96745	3.44209	0.0286176	-0.00769179	-0.0927697	9.9273e-11	-0.129098	0.406744	0.413637	
76845	1.96404	3.42745	0.0248167	-0.00120581	-0.0755437	1.0294e-10	-0.145572	0.554824	0.571886	
77085	1.98348	3.40277	0.0264192	-0.010345	-0.0446298	2.12417e-10	-0.146379	0.406404	0.354028	
77144	1.98313	3.40073	0.0275538	0.0001274	-0.045374	3.24799e-11	-0.0946379	0.62394	0.180444	
77384	1.96807	3.3747	0.0286095	0.0261432	-0.0404388	8.74243e-11	-0.193842	0.57121	0.242845	
77804	1.92188	3.29921	0.0501284	0.0313922	-0.0276087	2.04427e-11	-0.243485	0.565919	0.0567852	
77865	1.91444	3.29186	0.0559555	0.0111204	-0.00474354	7.38749e-11	-0.203784	0.421279	0.24625	
77954	1.9393	3.34084	0.0438497	0.0225346	-0.00256189	4.83561e-11	-0.227167	0.444087	0.201484	
77985	1.9393	3.34084	0.0438497	0.0213187	0.00778697	1.22989e-11	-0.237874	0.514547	0.204981	
78345	1.92695	3.34178	0.0570045	0.0415791	0.02433	1.08252e-10	-0.159384	0.521174	0.150349	
78404	1.93071	3.34544	0.0560766	0.0263512	0.0282611	1.27342e-10	-0.0942696	0.594407	0.212237	
78435	1.93071	3.34544	0.0560766	0.0309928	0.02148	2.81363e-11	-0.166673	0.562526	0.234469	
78494	1.90822	3.33616	0.0696441	-0.0044352	0.0107116	4.70544e-12	-0.232895	0.561909	0.039212	
78524	1.90822	3.33616	0.0696441	-0.0041691	0.00162396	5.64339e-11	-0.298539	0.540657	0.104507	
78644	1.90528	3.3356	0.067872	-0.0150645	-0.00632689	-9.58925e-12	-0.243906	0.590447	-0.0199776	
78675	1.90528	3.3356	0.067872	-0.0257903	-0.00766167	-2.44895e-12	-0.136442	0.520157	-0.0116617	
79065	1.97797	3.32865	0.0734192	-0.174704	-0.0681114	9.29983e-11	-0.123988	0.410072	0.309994	
79335	1.98652	3.18003	0.0906019	-0.327832	-0.0881466	8.01643e-11	-0.178685	0.357775	0.267214	
79365	1.98652	3.18003	0.0906019	-0.30874	-0.0959336	1.1268e-10	-0.145504	0.379921	0.313001	
79424	2.01246	3.17252	0.100906	-0.356056	-0.107261	5.27106e-11	-0.174136	0.385841	0.351404	
79724	2.18259	3.23095	0.103667	-0.435086	-0.0903695	6.45916e-11	0.0257236	0.319355	0.12665	
79754	2.18259	3.23095	0.103667	-0.436931	-0.0968755	2.30092e-11	-0.166698	0.45001	0.0766973	
79844	2.25583	3.21002	0.113626	-0.464435	-0.0721049	7.20295e-11	-0.188078	0.2759	0.218271	
79905	2.27224	3.20539	0.112415	-0.448482	-0.0605804	1.29697e-10	-0.20506	0.258483	0.227538	
80295	2.51182	3.16266	0.124689	-0.580799	-0.0646207	8.25065e-11	-0.0717088	0.140018	0.343777	
80325	2.51182	3.16266	0.124689	-0.555335	-0.0398923	2.339e-11	-0.214626	0.254208	0.0974585	
80865	2.97786	3.1538	0.135574	-0.630691	-0.0346563	2.13709e-10	-0.18721	0.090013	0.474909	
80954	3.05457	3.16659	0.138597	-0.538607	-0.00836586	5.6897e-11	-0.18464	0.169613	0.14589	
81135	3.1279	3.16531	0.147877	-0.372967	0.0706908	8.77852e-11	-0.190537	0.222663	0.195078	
81224	3.17304	3.17797	0.130539	-0.232444	0.0803295	6.4196e-11	-0.273715	0.22789	0.133742	
81374	3.23002	3.19756	0.132359	-0.060375	0.112077	8.11294e-12	-0.336911	0.50717	0.0676078	
82004	3.29178	3.23526	0.16496	0.005129	-0.0107578	1.00086e-10	-0.171428	0.446984	0.25663	
82304	3.29173	3.23751	0.154009	-0.00989264	0.0251992	4.87708e-11	-0.0739049	0.563585	0.203212	
82335	3.29173	3.23751	0.154009	-0.00357282	0.0309138	1.05798e-10	-0.107498	0.387099	0.207446	
83055	3.29202	3.24674	0.160788	0.0123556	0.0364689	7.56052e-12	-0.166026	0.6059	0.0420029	
83804	3.25329	3.26577	0.179079	0.0309194	-0.0115869	4.96043e-13	-0.141302	0.632317	0.0018372	
84255	3.23248	3.2539	0.179305	0.0201858	-0.0287365	1.89572e-10	-0.141262	0.452571	0.486081	
84285	3.23248	3.2539	0.179305	0.0195873	-0.029921	1.1401e-10	-0.107051	0.439362	0.380035	
84314	3.23248	3.2539	0.179305	0.0214408	-0.0237651	1.67205e-10	-0.194294	0.523506	0.348344	
84375	3.2259	3.25061	0.169742	0.00923383	-0.0100651	2.82235e-11	-0.0611584	0.574888	0.470392	
84554	3.21961	3.24485	0.171436	0.0157529	-0.0293881	1.97619e-10	-0.178255	0.404583	0.36596	
85125	3.1886	3.19557	0.185354	0.00127078	-0.14854	1.67654e-11	0.0391674	0.456469	0.0620939	
85274	3.19011	3.1791	0.190676	-0.0381214	-0.264663	4.38928e-11	-0.0011914	0.501723	0.182887	
85305	3.19011	3.1791	0.190676	-0.0515745	-0.273551	1.53309e-10	-0.0344546	0.453756	0.56781	
85545	3.21159	3.10294	0.203427	-0.0824477	-0.3709	9.05766e-11	-0.0464471	0.423369	0.158906	
86145	3.26387	2.85146	0.25122	-0.146748	-0.573804	1.15018e-11	0.12848	0.466661	0.127798	
86294	3.29885	2.76237	0.247967	-0.16354	-0.604708	7.74921e-11	0.0202218	0.362418	0.198698	
86535	3.33503	2.65143	0.260499	-0.188894	-0.578652	3.14427e-10	0.166719	0.365935	0.419236	
86594	3.36141	2.62101	0.266273	-0.156335	-0.57634	3.07074e-11	0.00602087	0.546148	0.204716	
86835	3.40863	2.46136	0.271805	-0.105872	-0.364452	1.12521e-10	0.0112354	0.435332	0.288514	
87164	3.44289	2.34171	0.267697	-0.0476917	-0.0722029	1.96817e-11	0.000427702	0.570553	0.0656058	
87495	3.49776	2.32942	0.281475	-0.021075	0.00216245	6.57277e-11	-0.172016	0.558933	0.219092	
87615	3.48748	2.32115	0.282235	-0.0131547	-0.00447592	1.39456e-10	-0.219686	0.423545	0.387377	
87704	3.495	2.32208	0.284249	-0.0161144	-0.00611148	1.63694e-10	-0.194722	0.369213	0.363763	
87944	3.51263	2.32727	0.284875	-0.0134401	-0.00505368	5.72144e-11	-0.203695	0.384009	0.238393	
87975	3.51263	2.32727	0.284875	-0.0176929	-0.00645479	4.41424e-11	-0.213102	0.428336	0.367854	
88005	3.51263	2.32727	0.284875	-0.0176929	-0.00645479	3.75211e-10	-0.213102	0.428336	0.367854	
88125	3.51179	2.32572	0.282432	-0.0139118	0.00106873	4.73084e-11	-0.265675	0.52576	0.315389	
88485	3.50259	2.32091	0.278783	-0.0225741	-0.000790903	1.46405e-10	-0.179398	0.422139	0.168282	
88755	3.511	2.32456	0.279251	0.0133754	0.0743557	9.00652e-11	-0.165823	0.556204	0.230936	
88845	3.49627	2.32775	0.275025	0.0625716	0.0911536	7.95132e-11	-0.071993	0.395045	0.189317	
88905	3.48396	2.32902	0.276794	0.0788008	0.0984826	2.8017e-11	-0.211531	0.490109	0.15565	
89025	3.46928	2.32939	0.276383	0.137617	0.112005	3.80429e-11	-0.212141	0.589613	0.253619	
89234	3.38294	2.33105	0.265583	0.23067	0.125751	3.80317e-12	-0.167446	0.722081	0.0158465	
89265	3.38294	2.33105	0.265583	0.239671	0.138952	6.87819e-11	-0.161443	0.663313	0.163766	
89295	3.38294	2.33105	0.265583	0.257164	0.147788	3.92127e-11	-0.219457	0.726236	0.217849	
89954	2.9996	2.48286	0.212609	0.575772	0.365724	1.46454e-10	-0.364578	0.76376	0.203408	
90225	2.78895	2.56877	0.171248	0.448151	0.345076	3.09539e-11	-0.253528	0.735902	0.1474	
90255	2.78895	2.56877	0.171248	0.420528	0.318837	2.99481e-11	-0.40328	0.829388	0.0587218	
90495	2.64395	2.6239	0.160785	0.365733	0.171222	9.17372e-12	-0.184376	0.742009	0.0382238	
90555	2.59368	2.63634	0.14934	0.349031	0.140427	1.62036e-11	-0.188568	0.739761	0.0540119	
90644	2.53917	2.64265	0.140245	0.327797	0.0757324	3.04162e-11	-0.208315	0.774256	0.101387	
90735	2.51679	2.6494	0.141203	0.253578	0.0495646	2.95366e-11	-0.147968	0.610842	0.246139	
91215	2.35438	2.59373	0.110928	0.00941127	-0.127465	1.7115e-11	-0.00132612	0.705683	0.142625	
91334	2.32898	2.55838	0.111618	-0.0419427	-0.159294	7.67865e-11	-0.0395399	0.655079	0.182825	
91395	2.33392	2.54057	0.116497	-0.0757545	-0.169575	2.08497e-11	-0.0676533	0.681051	0.231663	
91424	2.33392	2.54057	0.116497	-0.0757545	-0.169575	2.22397e-10	-0.0676533	0.681051	0.231663	
91814	2.356	2.39674	0.126796	-0.252948	-0.284487	2.61535e-11	0.0838088	0.571429	0.217946	
91845	2.356	2.39674	0.126796	-0.263697	-0.287542	-8.58208e-13	-0.0287885	0.425894	-0.00953564	
91935	2.38709	2.35335	0.136861	-0.265184	-0.288803	9.77625e-11	-0.0573713	0.375607	0.203672	
92145	2.44914	2.27361	0.151992	-0.330533	-0.301618	1.87665e-11	0.0288332	0.403837	0.0781936	
92204	2.45927	2.26507	0.153184	-0.358895	-0.278174	1.39637e-10	0.0461187	0.355715	0.465456	
92445	2.56795	2.19725	0.17468	-0.48017	-0.290769	8.84465e-11	-0.0219822	0.380267	0.226786	
92474	2.56795	2.19725	0.17468	-0.508474	-0.272754	3.49136e-11	0.0456708	0.304761	0.290947	
92565	2.62515	2.15024	0.18509	-0.490735	-0.29203	9.39226e-11	-0.0317456	0.306815	0.208717	
93015	2.92687	2.01386	0.244734	-0.38745	-0.162864	1.3566e-10	0.224647	0.122242	0.215334	
93045	2.92687	2.01386	0.244734	-0.382386	-0.152474	1.26179e-10	-0.110534	0.146956	0.182868	
93284	3.06212	1.95362	0.240373	-0.257277	-0.0135102	6.24393e-11	-0.0481705	0.263969	0.173442	
93315	3.06212	1.95362	0.240373	-0.259896	-0.00735363	1.19418e-10	-0.165202	0.239778	0.265374	
93375	3.07255	1.94793	0.238593	-0.230334	0.0122854	2.41961e-10	-0.0173098	0.265316	0.366608	
93645	3.19237	1.93552	0.214838	-0.0591739	0.0463644	-4.37149e-11	-0.245433	0.401016	-0.161907	
93854	3.22289	1.95029	0.277537	-0.0136383	0.017264	1.32088e-10	-0.174292	0.424833	0.244607	
93974	3.23377	1.9516	0.281992	0.0063443	0.00159697	2.0145e-10	-0.0879588	0.483892	0.373055	
94125	3.25054	1.94728	0.282398	0.00467848	-0.000291414	1.04922e-10	-0.232236	0.425619	0.349741	
94275	3.2588	1.94672	0.285868	0.0152929	-0.0138819	2.5924e-10	-0.112103	0.453862	0.508314	
94335	3.25712	1.94884	0.276324	0.00967146	-0.0101216	1.56262e-10	-0.160524	0.474764	0.520873	
94395	3.249	1.93293	0.274027	0.016159	-0.0060815	2.44116e-10	-0.112891	0.434359	0.40686	
94484	3.26085	1.9415	0.272883	0.00948435	-0.00429697	1.15571e-10	-0.150938	0.300184	0.428041	
94544	3.26051	1.95282	0.270117	0.0264909	-0.00579083	1.34566e-10	-0.192003	0.40975	0.407777	
94575	3.26051	1.95282	0.270117	0.0346443	0.00129578	4.23314e-11	-0.095086	0.504666	0.235174	
94965	3.22775	1.93898	0.266582	0.06265	0.0202257	2.72873e-11	-0.115355	0.45233	0.181916	
95024	3.20527	1.93139	0.275184	0.0824854	0.0216708	7.79945e-11	-0.120066	0.599223	0.15293	
95054	3.20527	1.93139	0.275184	0.110722	0.0253892	2.88402e-12	-0.165556	0.501711	0.0961341	
95205	3.17273	1.92869	0.256083	0.136867	0.033557	1.98361e-12	-0.125803	0.652316	0.00661203	
95265	3.16366	1.92534	0.257743	0.136309	0.0428752	5.21926e-11	-0.14175	0.696731	0.193306	
95414	3.14386	1.94846	0.265875	0.140224	0.0720459	1.66905e-11	-0.189364	0.642603	0.11127	
95564	3.096	1.95284	0.259928	0.108292	0.106469	1.81714e-12	-0.197838	0.782656	0.0121143	
95625	3.06694	1.95085	0.246021	0.138736	0.116619	-2.82098e-12	-0.139106	0.577868	-0.0117541	
95655	3.06694	1.95085	0.246021	0.122959	0.110703	-1.31489e-11	-0.352933	0.629937	-0.0547872	
95955	3.01038	1.97817	0.258533	0.0574436	0.0775937	4.47938e-11	-0.11287	0.459622	0.149313	
96015	3.00645	1.98082	0.263048	0.0398028	0.0723614	4.82688e-11	-0.190557	0.408751	0.26816	
96225	2.99921	2.02128	0.250962	-0.0137895	0.0464916	1.55501e-10	-0.143095	0.653669	0.272808	
96284	2.99447	2.02027	0.255569	-0.0176004	0.0346437	2.66909e-11	-0.132769	0.518617	0.1271	
96314	2.99447	2.02027	0.255569	-0.0176004	0.0346437	1.41081e-10	-0.132769	0.518617	0.1271	
96555	2.98207	2.03094	0.239202	-0.0274239	0.0250678	7.729e-11	-0.158885	0.414011	0.234212	
96614	2.97872	2.02985	0.235645	-0.0215894	0.0361845	1.37165e-11	-0.251467	0.538766	0.152406	
96735	3.003	2.04984	0.232379	-0.0200701	0.011804	4.19975e-11	-0.113443	0.515254	0.155546	
97125	3.01424	2.05789	0.229656	-0.0145086	0.00346654	5.45954e-11	-0.00725116	0.499797	0.303308	
97364	3.01686	2.05609	0.231456	-0.0150112	-0.00640053	1.75804e-11	-0.241762	0.392583	0.146504	
97394	3.01686	2.05609	0.231456	-0.0127588	-0.00794063	2.47203e-11	-0.0396707	0.461906	0.412004	
97695	3.02145	2.05444	0.233525	-0.00846827	-0.00991065	4.41961e-11	0.0291362	0.462432	0.163689	
97874	3.00743	2.03202	0.240177	-0.0541741	0.18112	0.0634011	7.3002e+07	2.39163e+07	3.30973e+07	
97905	3.00743	2.03202	0.240177	-0.0214514	-0.0164947	5.93814e-11	-0.159093	0.387025	0.247423	
98265	3.0552	2.03588	0.244804	-0.0953839	-0.0516724	3.28852e-10	-0.122949	0.448645	0.39149	
98294	3.0552	2.03588	0.244804	-0.0953839	-0.0516724	6.81193e-10	-0.122949	0.448645	0.39149	
98444	3.06892	2.01678	0.240285	-0.13258	-0.0796121	3.29426e-11	-0.159051	0.501077	0.0915072	
98505	3.08511	2.01433	0.240869	-0.171037	-0.100462	2.17885e-10	-0.0439733	0.226523	0.345849	
98534	3.08511	2.01433	0.240869	-0.185501	-0.102779	7.26899e-11	-0.0469823	0.340269	0.484599	
98895	3.20412	1.95553	0.272258	-0.275483	-0.166599	-3.61533e-11	-0.147493	0.404322	-0.0860792	
98924	3.20412	1.95553	0.272258	-0.296179	-0.16957	2.30241e-11	-0.208622	0.352003	0.383735	
99075	3.28006	1.94066	0.28863	-0.328442	-0.180159	1.76792e-11	-0.0858208	0.262439	0.0841865	
99225	3.32555	1.88989	0.2999	-0.290588	-0.191468	-3.14708e-12	-0.2038	0.264024	-0.0116558	
99435	3.40088	1.83725	0.301955	-0.367147	-0.210893	4.96144e-11	-0.0390798	0.302974	0.137818	
99614	3.49249	1.76273	0.313585	-0.388896	-0.221103	-1.14294e-11	-0.159351	0.155446	-0.0293062	
99735	3.56558	1.71998	0.319818	-0.364944	-0.221683	-2.8013e-11	-0.100817	0.229684	-0.0345839	
100065	3.7565	1.59286	0.337467	-0.434788	-0.297906	7.55081e-11	-0.174218	0.176865	0.167796	
100125	3.79648	1.57343	0.352076	-0.469545	-0.35477	1.04206e-10	-0.0115937	0.174568	0.385948	
100215	3.86937	1.52679	0.360529	-0.492323	-0.357459	1.09898e-10	-0.110338	0.052409	0.174441	
100484	4.04369	1.44032	0.37004	-0.503879	-0.34735	5.6278e-11	-0.290302	0.166433	0.187593	
100695	4.16727	1.37746	0.387758	-0.419703	-0.299236	1.20317e-10	-0.191771	0.0586758	0.445619	
100785	4.20776	1.37834	0.393819	-0.399075	-0.263617	9.3977e-11	-0.208802	0.117777	0.284779	
101114	4.38097	1.3406	0.415336	-0.305927	-0.0456229	2.0561e-11	-0.275684	0.19936	0.0979093	
101715	4.50729	1.40605	0.42562	0.0254672	0.238142	1.27798e-10	-0.485932	0.270778	0.266245	
102225	4.48564	1.55392	0.403931	0.268401	0.405257	7.21321e-11	-0.473606	0.538374	0.24044	
102795	4.29193	1.75603	0.347001	0.456386	0.439137	2.11402e-10	-0.430015	0.616349	0.391485	
102855	4.24596	1.78576	0.353812	0.462121	0.431599	4.54777e-11	-0.443126	0.606878	0.137811	
102885	4.24596	1.78576	0.353812	0.468752	0.430686	7.18695e-11	-0.492362	0.703971	0.0921404	
102914	4.24596	1.78576	0.353812	0.465563	0.434551	2.33638e-11	-0.498374	0.741526	0.0648994	
103845	3.6652	2.20866	0.272329	0.323463	0.109447	-2.26083e-11	-0.273523	0.588279	-0.0418672	
104294	3.55378	2.2406	0.262751	0.0408036	0.00386389	4.9518e-12	-0.143964	0.485499	0.02751	
104715	3.50768	2.23649	0.259295	0.0352974	0.00581037	3.42286e-11	-0.239325	0.368364	0.0671149	
105105	3.49242	2.24426	0.256713	0.00436217	0.0310655	1.07109e-11	-0.306313	0.422556	0.0446289	
105254	3.48788	2.24529	0.258234	-0.00107993	0.0442144	7.2028e-11	-0.160186	0.453027	0.342991	
105315	3.4843	2.24704	0.257474	-0.00789012	0.0294345	7.61703e-11	-0.226481	0.403599	0.423168	
105344	3.4843	2.24704	0.257474	-0.0314836	0.0292178	1.50577e-10	-0.137515	0.481906	0.456294	
105435	3.4631	2.23376	0.252741	-0.0682368	0.0218788	8.06367e-11	-0.271981	0.296362	0.383984	
105704	3.51295	2.24604	0.257032	-0.140739	0.0115779	9.09848e-11	-0.0459514	0.323388	0.202189	
106155	3.62928	2.26445	0.265207	-0.250972	0.0384038	1.29263e-10	-0.205829	0.209275	0.195854	
106184	3.62928	2.26445	0.265207	-0.251382	0.0388477	3.52655e-11	-0.129888	0.204191	0.0839654	
106244	3.6385	2.25409	0.262849	-0.240492	0.0497898	3.29994e-11	-0.234983	0.31154	0.091665	
106305	3.67918	2.27067	0.27102	-0.276542	0.029458	3.43795e-11	-0.327826	0.251447	0.10418	
106514	3.79363	2.25919	0.266236	-0.352693	0.00143539	6.05808e-11	-0.23078	0.245696	0.201936	
106575	3.81567	2.27075	0.26808	-0.347651	0.00931276	2.84402e-11	-0.221357	0.241126	0.316002	
107295	4.29275	2.25663	0.305134	-0.509158	-0.0736882	-4.1312e-11	-0.2653	-0.01139	-0.0529641	
107504	4.4738	2.19437	0.330459	-0.490308	-0.165508	2.95153e-11	-0.176718	-0.0766329	0.245961	
107565	4.50238	2.19067	0.329191	-0.551252	-0.165208	4.71146e-11	-0.150402	0.202287	0.157049	
107595	4.50238	2.19067	0.329191	-0.458792	-0.166677	-9.07029e-12	-0.0232986	0.142092	-0.0755858	
107685	4.5889	2.17986	0.363414	-0.453546	-0.210107	6.34434e-12	-0.204185	0.149942	0.0162675	
108015	4.72531	2.13774	0.367673	-0.181797	-0.0767839	-5.10837e-12	-0.103252	0.446799	-0.0243256	
108315	4.76555	2.14454	0.342963	-0.0545426	-0.00438966	-3.49594e-11	-0.364567	0.442554	-0.116531	
108374	4.80261	2.12656	0.362406	-0.0474875	-0.00128214	5.53039e-11	-0.204535	0.379181	0.141805	
108435	4.83842	2.11408	0.370199	-0.0232827	-0.00454038	1.20066e-10	-0.213534	0.427424	0.142936	
108615	4.85502	2.0964	0.388442	-0.0180697	-0.0219891	3.25059e-11	-0.288285	0.417147	0.15479	
108644	4.85502	2.0964	0.388442	-0.0266225	-0.0227639	3.35643e-11	-0.110565	0.436384	0.279702	
108885	4.85713	2.08694	0.394622	-0.00496536	-0.0341047	2.00399e-11	-0.224017	0.485995	0.166999	
108914	4.85713	2.08694	0.394622	-0.0114805	-0.0336062	1.41672e-11	-0.223194	0.558182	0.157413	
108945	4.85713	2.08694	0.394622	-0.0151555	-0.0407355	3.9031e-11	-0.353135	0.347979	0.325258	
109185	4.86782	2.08371	0.39003	-0.00657918	-0.0345468	6.91019e-11	-0.237676	0.390445	0.329057	
109635	4.82825	2.06478	0.385049	0.111331	0.0819911	4.99989e-11	-0.228222	0.562172	0.23809	
110205	4.66891	2.14775	0.366989	0.389325	0.382908	3.79952e-13	-0.463542	0.69876	0.00316627	
110325	4.62663	2.16566	0.351418	0.398776	0.424464	6.09392e-11	-0.421395	0.736749	0.290187	
111195	4.11084	2.75594	0.243044	0.420564	0.625967	9.0227e-12	-0.799111	0.779382	0.0334174	
111225	4.11084	2.75594	0.243044	0.421652	0.648666	7.28259e-12	-0.527103	0.89889	0.0242753	
111254	4.11084	2.75594	0.243044	0.386174	0.650005	1.41762e-11	-0.609436	0.847563	0.094508	
111285	4.11084	2.75594	0.243044	0.392843	0.706417	6.3682e-12	-0.576358	0.804416	0.0235859	
111555	3.88153	3.09175	0.197582	0.330419	0.771466	2.29269e-11	-0.682761	0.790963	0.0424572	
112095	3.79168	3.56926	0.160074	-0.120857	0.707981	8.85596e-11	-0.529744	0.384413	0.196799	
112695	3.97123	3.69454	0.10867	-0.424168	-0.0915297	8.33005e-10	-0.17801	0.408457	1.11067	
112785	3.98423	3.68651	0.0990891	-0.419612	-0.118385	2.49636e-10	-0.116911	0.498387	1.18874	
112964	4.05055	3.65263	0.0877024	-0.482372	-0.219466	6.35396e-11	-0.214522	0.478042	0.705995	
113175	4.14804	3.59986	0.107332	-0.499684	-0.349845	2.217e-11	-0.0819969	0.419217	0.1478	
113654	4.46358	3.35239	0.222317	-0.745142	-0.862515	3.05756e-10	0.111371	0.172751	1.13243	
113685	4.46358	3.35239	0.222317	-0.756761	-0.938076	1.58322e-10	-0.0366538	0.202899	0.527741	
113745	4.48459	3.25595	0.252508	-0.722023	-1.12447	-5.08085e-11	0.181242	0.111385	-0.18818	
113865	4.53484	3.1721	0.262567	-0.360546	-0.97199	-5.08676e-10	0.161669	0.226783	-1.13039	
114014	4.61233	3.02965	0.337728	-0.0395062	-0.570511	-1.75687e-10	0.348567	0.3546	-0.650691	
114375	4.5041	2.78464	0.366591	0.162124	-0.231366	-1.40112e-10	0.053537	0.631519	-0.424583	
114464	4.53321	2.74061	0.368394	0.169912	-0.146941	-5.88154e-11	0.0305967	0.583258	-0.392103	
114555	4.5324	2.73551	0.358547	0.202116	-0.097801	-1.14079e-10	-0.104725	0.431573	-0.380262	
114585	4.5324	2.73551	0.358547	0.202116	-0.097801	-4.56314e-10	-0.104725	0.431573	-0.380262	
114764	4.54548	2.71991	0.353236	0.267003	-0.0176752	-9.66265e-11	-0.177866	0.64687	-0.268407	
115905	4.45214	2.72727	0.356544	-0.0348622	-0.0265316	6.21712e-11	-0.328839	0.538685	0.259047	
115934	4.45214	2.72727	0.356544	-0.0524678	-0.0290178	6.41411e-11	-0.163892	0.40769	0.305434	
115994	4.43629	2.70299	0.359021	-0.0501206	-0.0442434	6.7922e-11	-0.217152	0.438257	0.323438	
116114	4.45285	2.70028	0.355146	-0.0553685	-0.0508263	2.46299e-11	-0.188931	0.429578	0.273665	
116145	4.45285	2.70028	0.355146	-0.0551927	-0.0528811	7.17114e-11	-0.2745	0.522824	0.298797	
116205	4.46466	2.70087	0.357071	-0.0566584	-0.0520364	9.66638e-11	-0.171894	0.462287	0.169586	
116234	4.46466	2.70087	0.357071	-0.0590872	-0.0559367	7.90482e-11	-0.17018	0.394701	0.146386	
116265	4.46466	2.70087	0.357071	-0.0679094	-0.0511926	1.85728e-11	-0.312443	0.481806	0.0515912	
116505	4.50234	2.7023	0.357681	-0.0535961	-0.0424876	2.35885e-11	-0.23914	0.371202	0.0374421	
116685	4.51931	2.68565	0.357361	-0.062811	-0.0172787	2.13453e-11	-0.326308	0.30629	0.101644	
116714	4.51931	2.68565	0.357361	-0.0546902	-0.0177914	3.05407e-11	-0.256112	0.529174	0.254506	
116745	4.51931	2.68565	0.357361	-0.0746591	-0.00957639	3.93241e-11	-0.244774	0.365657	0.262161	
117105	4.54346	2.66831	0.357275	-0.0440252	0.00400722	5.95085e-11	-0.334453	0.370714	0.165301	
117225	4.53261	2.65452	0.357988	-0.0311537	0.0318389	4.03392e-11	-0.230635	0.334393	0.192092	
117314	4.5437	2.66234	0.356535	-0.0279767	0.0529145	2.44506e-11	-0.221604	0.406481	0.135837	
117764	4.53615	2.67138	0.356881	-0.0314876	0.0397484	3.93637e-11	-0.377703	0.406255	0.262425	
117885	4.53336	2.67227	0.356968	-0.0221054	0.0238783	2.73496e-11	-0.177308	0.376656	0.130236	
117915	4.53336	2.67227	0.356968	-0.0356763	0.0219985	1.42527e-11	-0.39383	0.471349	0.0791818	
117975	4.53173	2.67205	0.357331	-0.025621	0.0158256	2.42886e-11	-0.284621	0.452617	0.0352008	
118185	4.5304	2.67427	0.357674	-0.0265401	0.00460754	2.51959e-11	-0.100246	0.519553	0.167972	
118364	4.52893	2.66755	0.357737	-0.00993359	-0.00382835	5.90586e-11	-0.193559	0.444203	0.218736	
118424	4.53248	2.66515	0.362065	-0.0131377	-0.0227899	3.02651e-11	-0.293429	0.371054	0.201768	
118875	4.5574	2.66091	0.364837	0.00928947	-0.0331273	-2.68956e-12	-0.194249	0.551592	-0.014942	
119055	4.55594	2.65649	0.371	0.0127705	-0.0247785	5.8139e-11	-0.185514	0.443181	0.129198	
119175	4.55135	2.64355	0.374627	0.0209957	-0.0152104	9.93111e-11	-0.307449	0.48994	0.17423	
119235	4.54963	2.64203	0.38086	0.0130855	-0.00517422	1.50225e-11	-0.256782	0.465063	0.10015	
119955	4.50847	2.63885	0.381856	0.00505629	0.0348697	2.73615e-12	-0.25933	0.417674	0.00912049	
120194	4.51184	2.64715	0.377404	-0.0181263	0.0406777	-9.80929e-13	-0.268435	0.548122	-0.0108992	
120254	4.50622	2.64799	0.376501	-0.0307168	0.0371635	2.61867e-11	-0.22989	0.475936	0.218222	
120374	4.50058	2.64283	0.380189	-0.0349589	0.0388366	7.8007e-11	-0.243486	0.495821	0.108343	
120465	4.49302	2.63881	0.378092	-0.0338932	0.0369404	3.56732e-11	-0.220309	0.627178	0.0383583	
120615	4.51061	2.65416	0.376166	-0.0469055	0.0202051	3.2453e-11	-0.34767	0.565844	0.135221	
120645	4.51061	2.65416	0.376166	-0.0409851	0.0132228	9.77556e-12	-0.145652	0.492984	0.108617	
120914	4.53187	2.65296	0.375431	-0.0542226	0.0155724	2.16038e-11	-0.225975	0.51916	0.065466	
121274	4.56527	2.66009	0.375246	-0.0351787	-0.0453117	9.91844e-11	-0.416548	0.555188	0.236153	
121424	4.57181	2.64417	0.368632	-0.0228465	-0.0788678	1.03896e-10	-0.354739	0.462794	0.247372	
121635	4.5884	2.64336	0.374471	-0.0134124	-0.0929872	3.53405e-11	-0.274482	0.575201	0.235604	
121695	4.59569	2.64223	0.374375	-0.0135219	-0.0935346	6.10322e-11	-0.263049	0.479824	0.508602	
121844	4.59373	2.62364	0.371378	0.00452403	-0.0945328	1.21057e-10	-0.22949	0.657513	0.212381	
121935	4.60934	2.62518	0.377511	-0.00339112	-0.109963	1.77132e-10	-0.192411	0.467528	0.347318	
121994	4.59704	2.61821	0.374987	-0.00422928	-0.111952	1.29863e-10	-0.238378	0.39575	0.432875	
122025	4.59704	2.61821	0.374987	0.0044234	-0.111609	2.33622e-11	-0.348142	0.432555	0.12979	
122085	4.60751	2.60016	0.381371	0.0131389	-0.108875	2.37802e-11	-0.285642	0.605206	0.113239	
122115	4.60751	2.60016	0.381371	0.0146291	-0.101842	2.77058e-11	-0.334413	0.438617	0.131932	
122475	4.55359	2.51363	0.403427	0.0218768	-0.0728254	1.23055e-11	-0.282085	0.405951	0.0820364	
122535	4.55471	2.51089	0.400568	0.0266234	-0.0704669	-6.84703e-12	-0.219889	0.491694	-0.0152156	
122565	4.55471	2.51089	0.400568	0.0302373	-0.0676489	-1.22494e-11	-0.263625	0.546335	-0.0340261	
122654	4.55316	2.50863	0.401161	0.0449413	-0.0574328	4.85239e-12	-0.429015	0.348443	0.161746	
123044	4.52076	2.4658	0.416441	0.0477522	-0.0486787	9.10275e-12	-0.257159	0.378684	0.303425	
123794	4.44928	2.44141	0.429412	0.0666624	0.0401019	6.22343e-11	-0.371922	0.509061	0.138298	
123885	4.44442	2.44501	0.423254	0.0474388	0.0443062	1.00722e-10	-0.233302	0.513661	0.129131	
124365	4.42366	2.4707	0.410987	-0.00443365	0.0668026	6.77349e-11	-0.271747	0.416883	0.141114	
125264	4.47242	2.58765	0.574298	-0.0916913	0.0702833	-4.47148e-11	-0.375969	0.458836	-0.124208	
125295	4.47242	2.58765	0.574298	-0.0696603	0.0727176	-1.71455e-11	-0.274004	0.366214	-0.0439629	
125384	4.43847	2.58758	0.644764	-0.0849748	0.0430524	-4.08539e-11	-0.362161	0.551082	-0.453932	
125625	4.47153	2.6557	0.860913	-0.0821116	0.0521097	-5.58966e-11	-0.380653	0.47664	-0.124215	
125745	4.47611	2.67879	0.948057	-0.0577321	0.104365	6.8398e-11	-0.303854	0.335055	0.455986	
125865	4.49377	2.7228	1.06553	-0.0542879	0.230744	1.17273e-10	-0.375485	0.441811	1.30304	
126074	4.5165	2.76162	1.25384	-0.111834	-0.2519	2.88053e-09	-3.91182	-0.704075	10.6686	
126165	4.48624	2.77112	1.28846	-0.101166	-0.227908	-4.21315e-12	-0.074728	0.639458	-0.0280877	
127154	4.46824	2.78877	1.30352	-0.00296955	-0.00150799	3.84614e-11	-0.193055	0.681954	0.160256	
127244	4.47299	2.78716	1.30223	-0.00323457	-0.00106616	4.79157e-11	-0.278087	0.678798	0.159719	
127275	4.47299	2.78716	1.30223	-0.00189434	-0.0025735	1.91715e-11	-0.276723	0.680039	0.159762	
127485	4.47724	2.78933	1.29982	-0.000976429	-0.00104822	3.35913e-11	-0.216284	0.682037	0.159959	
127874	4.46946	2.78914	1.30461	-0.00228299	0.000809402	4.79229e-11	-0.275044	0.679044	0.159743	
127964	4.47214	2.7814	1.30387	-0.000366534	0.00188582	7.84602e-11	-0.277263	0.680534	0.237758	
127995	4.47214	2.7814	1.30387	-0.00117671	0.00139331	3.21187e-11	-0.277383	0.679915	0.152946	
128385	4.4742	2.78527	1.29922	-0.00197101	0.0013008	3.42572e-11	-0.277399	0.700758	0.10381	
128624	4.47519	2.78606	1.29888	-0.000917291	0.000856178	5.28068e-11	-0.276246	0.680201	0.160021	
128684	4.46794	2.78996	1.30431	-0.000496792	2.4846e-05	8.14812e-11	-0.27797	0.680172	0.159767	
129104	4.46499	2.78233	1.30375	-0.000155426	0.000505025	6.71665e-11	-0.247565	0.680197	0.15992	
129465	4.47299	2.79063	1.3126	0.00069582	-0.00064321	4.32883e-11	-0.275947	0.680335	0.160327	
129494	4.47299	2.79063	1.3126	0.000675206	-0.000624153	4.31772e-11	-0.2727	0.679802	0.159916	
129765	4.47661	2.79172	1.31138	0.00026065	0.00131236	5.27231e-11	-0.277835	0.679706	0.159767	
130545	4.47681	2.79054	1.3126	-0.000227734	-0.000605224	1.50045e-10	-0.216656	0.681906	0.312593	
130575	4.47681	2.79054	1.3126	-0.000558898	0.000343248	4.40863e-11	-0.253255	0.680383	0.244924	
130875	4.47991	2.79326	1.3122	-6.41031e-05	-0.000492748	7.11277e-11	-0.203308	0.68128	0.237092	
130935	4.47895	2.79335	1.31214	-0.00114483	0.000766627	6.80553e-11	-0.203081	0.681899	0.252057	
130995	4.47986	2.79224	1.31344	-0.0014027	-0.000378747	4.72918e-11	-0.202394	0.68095	0.225199	
131234	4.47667	2.7903	1.31277	-7.63153e-05	-0.00102079	7.25266e-11	-0.285502	0.678818	0.16117	
131324	4.47763	2.78955	1.31279	0.00107698	0.000985419	9.59233e-12	-0.27752	0.679841	0.159872	
131985	4.48848	2.79169	1.31079	-0.00131074	0.00262093	1.20059e-10	-0.284883	0.679555	0.160078	
132014	4.48848	2.79169	1.31079	-0.000253139	0.00083332	2.3594e-11	-0.27706	0.679383	0.196617	
132435	4.47868	2.78763	1.31338	-0.00319815	0.00164612	1.12531e-10	-0.192544	0.682628	0.250069	
132525	4.48128	2.78949	1.31445	-0.0012255	0.000738609	5.7938e-11	-0.203137	0.68122	0.241408	
132794	4.47891	2.78849	1.31622	0.000412804	-0.00208576	4.93308e-11	-0.217968	0.681784	0.234908	
132854	4.48234	2.79146	1.31336	-0.000947814	-0.000791786	8.27948e-11	-0.268051	0.680588	0.212294	
133095	4.47907	2.79067	1.31424	-0.000527254	0.000631126	5.69212e-11	-0.282517	0.680685	0.158115	
133185	4.47915	2.79116	1.31376	0.000310409	-0.000285611	7.12342e-11	-0.276988	0.679875	0.26383	
133965	4.48036	2.79018	1.31414	-0.000383063	-0.000471288	3.5505e-11	-0.217322	0.681227	0.2367	
134054	4.47944	2.79125	1.31495	-0.000525908	0.000228429	6.53261e-11	-0.2155	0.680553	0.181461	
134325	4.47744	2.79081	1.31307	-0.00148467	-0.000659955	2.76518e-11	-0.276903	0.678556	0.0709022	
134414	4.47784	2.79063	1.31426	-0.00252221	0.00195591	9.85332e-11	-0.277861	0.6795	0.164222	
134595	4.47927	2.791	1.31469	-0.00192012	0.00173607	8.14764e-11	-0.277352	0.680258	0.159758	
134835	4.48497	2.79312	1.31494	-0.00087476	0.000692891	3.3533e-11	-0.281333	0.679507	0.159681	
135104	4.48206	2.79177	1.31605	-0.000294412	0.000454916	5.27231e-11	-0.274293	0.679671	0.159767	
135195	4.48139	2.79153	1.31749	-0.00217803	0.000846374	1.00641e-10	-0.277446	0.678706	0.159748	
135795	4.47865	2.79297	1.31663	-0.00166834	0.000523064	8.15348e-11	-0.266169	0.67961	0.159872	
135824	4.47865	2.79297	1.31663	-0.000155132	-0.000356737	5.27864e-11	-0.243475	0.67971	0.159959	
136154	4.47855	2.79112	1.31518	-0.000431275	0.0029373	2.39615e-11	-0.278103	0.678222	0.159743	
136275	4.4785	2.79059	1.31396	-0.000200896	0.00058711	1.10594e-10	-0.277588	0.67984	0.153602	
136665	4.47871	2.79172	1.31529	-0.000745079	0.000812695	1.01545e-10	-0.27963	0.679909	0.169242	
136875	4.47996	2.79319	1.31484	-0.000415206	-0.000521893	9.10562e-11	-0.277522	0.678997	0.159748	
137234	4.47783	2.792	1.31553	-0.00101898	0.000515127	9.4932e-11	-0.278474	0.680306	0.243415	
137265	4.47783	2.792	1.31553	0.0014261	0.0013291	7.53983e-11	-0.277671	0.680242	0.14784	
137534	4.48375	2.79327	1.31751	-0.000144993	0.000963416	7.91162e-11	-0.204822	0.680979	0.164825	
138135	4.47597	2.79	1.31577	-0.0447829	0.027276	-0.186595	2.54124e+07	2.36195e+07	-4.68183e+07	
138224	4.47479	2.79227	1.31614	-0.000266481	-0.00108818	2.87521e-11	-0.28309	0.67827	0.159734	
138435	4.47072	2.79099	1.31687	-0.00124119	0.000549456	7.4727e-11	-0.278298	0.680007	0.177921	
138495	4.47428	2.79058	1.3179	-0.00109812	0.000777791	4.58191e-11	-0.275208	0.68025	0.15273	
138584	4.47115	2.79034	1.31759	-0.00118397	0.000108046	1.92313e-11	-0.25904	0.66365	0.16026	
139004	4.4712	2.79879	1.31735	-0.0011014	0.000994203	2.14026e-11	-0.205951	0.680951	0.237806	
139065	4.47044	2.79852	1.31697	-0.000518603	-0.000437025	4.26482e-11	-0.234743	0.680954	0.236934	
139095	4.47044	2.79852	1.31697	-0.000754806	0.00104555	4.07387e-11	-0.202325	0.680896	0.169745	
139124	4.47044	2.79852	1.31697	-0.000754807	0.00104555	1.88417e-10	-0.202325	0.680896	0.169745	
139335	4.46369	2.79573	1.31617	0.000557395	0.00275504	3.05902e-11	-0.27752	0.679728	0.169946	
139694	4.47062	2.79787	1.32005	-0.00133884	0.00140345	3.34695e-11	-0.289623	0.678777	0.159379	
139874	4.46719	2.79689	1.31902	-0.00160278	0.00104046	1.91697e-11	-0.277578	0.680114	0.159748	
139905	4.46719	2.79689	1.31902	-0.00163357	0.000798237	1.44178e-11	-0.196226	0.681254	0.160198	
