MS	x	y	z	vx	vy	vz	ax	ay	az	
8744	0.561743	-0.910761	1.13	0	0	0	18516.2	-3323.33	-86179.3	
8775	0.562096	-0.910205	1.13001	7.7768e-06	-1.3958e-06	-3.61953e-05	27053	42697.3	579.019	
8805	0.562096	-0.910205	1.13001	4.34868e-05	5.49646e-05	-3.5431e-05	27053	42697.3	579.019	
8834	0.558104	-0.91499	1.13159	4.75448e-05	6.13692e-05	-3.53442e-05	-311154	-373036	123532	
8865	0.557205	-0.916803	1.13238	-0.000101809	-0.000117688	2.39514e-05	-70389.2	-141931	61411.9	
8894	0.557256	-0.916357	1.13261	-0.000158824	-0.000232652	7.3695e-05	3998.03	35037.7	18657.5	
8924	0.55498	-0.920223	1.13214	-0.000158105	-0.000226345	7.70533e-05	-181054	-307430	-37819.5	
8955	0.558309	-0.913779	1.13275	-0.000255874	-0.000392357	5.66308e-05	265936	514675	48647.6	
9015	0.559173	-0.912676	1.13228	-0.0271717	0.00129868	5.45527e-10	69577	88884.1	-37803.7	
9044	0.559463	-0.912059	1.1324	-0.0271571	0.00131735	-7.93824e-06	49905.9	106703	9210.7	
9075	0.55807	-0.915567	1.13191	-0.0271301	0.00137497	-2.96446e-06	-114319	-287836	-40527.9	
9104	0.562443	-0.909725	1.13213	-0.0271439	0.00134043	-7.82781e-06	362192	483776	18339.8	
9135	0.564029	-0.90632	1.13207	-0.02697	0.00157264	9.75302e-07	131819	283186	-4615.73	
9164	0.563578	-0.907113	1.13227	-0.0269067	0.00170857	-1.24025e-06	-37679.4	-66325.7	16585.3	
9194	0.563158	-0.908028	1.13246	-0.0269192	0.00168668	4.23291e-06	-35423.7	-77216.7	16052.8	
9225	0.563158	-0.908028	1.13246	-0.0269627	0.00159171	2.39778e-05	-35423.7	-77216.7	16052.8	
9255	0.565495	-0.90294	1.13292	-0.0269798	0.00155464	3.16832e-05	199430	434363	39056.8	
9285	0.564793	-0.903948	1.13296	-0.0268122	0.00191951	6.44909e-05	-60138.5	-86391	3351.89	
9314	0.564793	-0.903948	1.13296	-0.0269151	0.00177178	7.02226e-05	-60138.5	-86391	3351.89	
9345	0.565062	-0.897385	1.13878	-0.0269403	0.00173549	7.16304e-05	23434.4	571403	506613	
9374	0.562363	-0.903575	1.13865	-0.026927	0.00206119	0.0003604	-236236	-541752	-11247.8	
9405	0.562547	-0.906163	1.13399	-0.0270049	0.00188241	0.000356688	161254	309967	-13174.5	
9465	0.56195	-0.907885	1.13411	-0.0287241	0.000389582	1.5173e-10	-94128.5	-220323	64189.3	
9495	0.561385	-0.909376	1.13374	-0.0287721	0.000277218	3.27367e-05	-50783.5	-133894	-33540.5	
9525	0.561445	-0.908812	1.13367	-0.0287798	0.000257134	2.77056e-05	5444.2	51074.2	-6296.7	
9555	0.559846	-0.912109	1.1337	-0.0287771	0.000281649	2.46832e-05	-145462	-300026	2915.17	
9585	0.559846	-0.912109	1.1337	-0.0289779	-0.000132386	2.87062e-05	-145462	-300026	2915.17	
9615	0.560084	-0.91313	1.13374	-0.0291044	-0.000393408	3.12424e-05	21886.9	-93776.7	3508.07	
9645	0.560934	-0.912013	1.13366	-0.0290906	-0.000452487	3.34524e-05	78656.5	103469	-6900.83	
9675	0.560855	-0.910824	1.1339	-0.0290529	-0.000402822	3.014e-05	-7346.46	110931	22321.8	
9705	0.56058	-0.911057	1.13392	-0.029056	-0.000356231	3.95152e-05	-25815.5	-21883.9	2055.44	
9734	0.558206	-0.91594	1.13231	-0.0290629	-0.00036214	4.00702e-05	-224513	-461832	-152846	
9795	0.556096	-0.915936	1.13255	-0.0257583	0.00153861	4.50727e-10	-201067	381.633	23625.8	
9824	0.559931	-0.915538	1.12972	-0.0258126	0.00153871	6.37941e-06	369446	38372.5	-273506	
9855	0.572211	-0.896403	1.13581	-0.0255909	0.00156173	-0.000157724	1.18775e+06	1.85083e+06	589746	
9884	0.567666	-0.90283	1.12831	-0.0252702	0.00206146	1.50707e-06	199855	269041	87249.3	
9914	0.558564	-0.916353	1.12903	-0.0252223	0.00212603	2.24469e-05	-893169	-1.32705e+06	70744.7	
9944	0.558447	-0.914982	1.12968	-0.0254902	0.00172791	4.36703e-05	-11529.7	135278	63425	
10005	0.561809	-0.908337	1.13466	-0.0263877	0.00236382	2.33788e-10	334401	661140	495438	
10035	0.559856	-0.911184	1.13446	-0.0261469	0.00283984	0.000356716	-195747	-285360	-19227.5	
10064	0.561676	-0.907988	1.13417	-0.0262702	0.00266006	0.000344603	183568	322319	-30096.7	
10095	0.555778	-0.91778	1.12442	-0.0261876	0.00280511	0.000331059	-599272	-994903	-990058	
10125	0.555528	-0.918197	1.12499	-0.0262775	0.00265587	0.00018255	-25552.5	-42702	58516.1	
10185	0.554703	-0.921038	1.12531	-0.0266175	0.000287496	5.69222e-10	-84997.3	-292485	32775.4	
10245	0.554702	-0.921789	1.1255	-0.0263616	-0.000340021	5.39375e-10	-26668.5	-28269.7	-22301.4	
10274	0.553532	-0.924618	1.12715	-0.0263816	-0.000361223	-1.67255e-05	-122960	-297123	173146	
10305	0.553532	-0.924618	1.12715	-0.0265882	-0.00086039	0.000274159	-122960	-297123	173146	
10364	0.552249	-0.925101	1.12694	-0.0273919	0.000619072	1.11374e-10	94226.2	269432	30909.2	
10395	0.550346	-0.92829	1.12741	-0.0273467	0.000748399	1.48365e-05	-204925	-343575	50513.9	
10424	0.549843	-0.929773	1.12709	-0.0274942	0.000501026	5.12065e-05	-54475.8	-160355	-34742.4	
10455	0.549765	-0.929992	1.12714	-0.0275432	0.000356706	1.99384e-05	-8507.27	-23826.4	6346.29	
10484	0.551008	-0.927109	1.12732	-0.0275506	0.000335977	2.54596e-05	135918	315092	19199.5	
10515	0.55136	-0.926018	1.12621	-0.0274936	0.000468316	3.35234e-05	38809.5	120331	-122529	
10545	0.55136	-0.926018	1.12621	-0.0274423	0.000627153	-0.000128215	38809.5	120331	-122529	
10574	0.553673	-0.923363	1.12687	-0.0274237	0.000684912	-0.000187028	257816	295937	74010.3	
10605	0.564307	-0.905555	1.13291	-0.027269	0.000862474	-0.000142622	1.19153e+06	1.99523e+06	676725	
10665	0.563241	-0.907178	1.13435	-0.0273935	0.00134694	2.24981e-10	-97677.8	-117658	-11898.4	
10694	0.564327	-0.90528	1.13439	-0.0274638	0.00126223	-8.56666e-06	123689	216015	4198.79	
10725	0.564205	-0.905713	1.13453	-0.027397	0.00137888	-6.29931e-06	-14002.5	-49603.8	16335.3	
10755	0.561723	-0.909621	1.13578	-0.0274071	0.00134316	5.46211e-06	-285805	-449930	143608	
10784	0.561723	-0.909621	1.13578	-0.0278701	0.000614275	0.000238106	-285805	-449930	143608	
10815	0.566914	-0.902566	1.13595	-0.0279901	0.000425304	0.000298422	605580	822988	19937.2	
10904	0.566691	-0.900458	1.13559	-0.0273087	0.00108915	2.07914e-10	16832.2	59343.4	-16092.2	
10935	0.566691	-0.900458	1.13559	-0.027286	0.00116926	-2.17243e-05	16832.2	59343.4	-16092.2	
10965	0.566495	-0.901042	1.13503	-0.0272718	0.00121911	-3.52417e-05	-23450.3	-69838.5	-66518.7	
10994	0.564902	-0.903377	1.13627	-0.0272782	0.00120025	-5.32018e-05	-86338.2	-131938	149874	
11025	0.564187	-0.904382	1.13699	-0.0272911	0.00118046	-3.07207e-05	-86787.4	-122069	86442.5	
11054	0.564568	-0.903645	1.137	-0.027325	0.00113285	2.99188e-06	46417.4	89939.8	2009.51	
11084	0.564568	-0.903645	1.137	-0.0272651	0.00124888	5.58415e-06	46417.4	89939.8	2009.51	
11114	0.564333	-0.904309	1.13662	-0.027254	0.00127046	6.06644e-06	-28970.8	-81927	-47407.8	
11145	0.5632	-0.906523	1.13769	-0.0272722	0.00121885	-2.38005e-05	-140288	-274018	132993	
11204	0.563176	-0.907823	1.1373	-0.0252579	0.00156112	2.07058e-10	24814.4	13858.3	-33928.9	
11235	0.565669	-0.903025	1.13578	-0.0252468	0.00156735	-1.52678e-05	313894	604116	-190379	
11264	0.565669	-0.903025	1.13578	-0.0248324	0.00236479	-0.000266568	313894	604116	-190379	
11295	0.565669	-0.903025	1.13578	-0.0241262	0.00372405	-0.00069492	313894	604116	-190379	
11355	0.565811	-0.904507	1.13573	-0.0260043	0.000353176	1.06877e-10	-22587.5	-119276	-33911.1	
11415	0.568877	-0.899278	1.13589	-0.0253286	0.00058402	1.2415e-10	137653	164200	58760.5	
11445	0.568877	-0.899278	1.13589	-0.0251469	0.000800764	7.7564e-05	137653	164200	58760.5	
11474	0.5686	-0.899514	1.13564	-0.0250271	0.000943619	0.000128686	-36256.1	-30998.2	-33474.6	
11505	0.569791	-0.896506	1.13422	-0.0250565	0.00091851	0.000101571	156880	396286	-186867	
11534	0.570135	-0.895785	1.13405	-0.0249859	0.00109684	1.74811e-05	45685.6	95696.3	-21872.7	
11565	0.569341	-0.897621	1.13427	-0.0249571	0.00115713	3.70132e-06	-105836	-244686	29253.1	
11595	0.571501	-0.898466	1.13454	-0.024992	0.00107638	1.33548e-05	289782	-113351	35467.4	
11624	0.569642	-0.901246	1.13593	-0.0248269	0.00101177	3.35713e-05	-250327	-374399	188078	
11655	0.567663	-0.906242	1.13648	-0.0249545	0.000820827	0.000129491	-268082	-676646	74007	
11685	0.570398	-0.899763	1.13631	-0.0251476	0.000333642	0.000182776	371987	880948	-23479.1	
11744	0.568386	-0.901925	1.13664	-0.0280212	0.00218995	2.67048e-10	-276052	-296623	45448.6	
11774	0.568386	-0.901925	1.13664	-0.0285264	0.00164713	8.31712e-05	-276052	-296623	45448.6	
11834	0.566807	-0.906278	1.13783	-0.0277217	0.000372183	2.02529e-10	308463	419888	100550	
11865	0.56539	-0.908777	1.13796	-0.0275089	0.000661906	6.93795e-05	-198835	-350379	18271.2	
11894	0.565127	-0.908085	1.13826	-0.0275805	0.000535769	7.59571e-05	-37046.2	97641.4	42443.7	
11925	0.564728	-0.910097	1.13847	-0.027606	0.000603141	0.000105243	-56557.9	-285019	28575.8	
11954	0.565875	-0.908176	1.13809	-0.0276535	0.000363725	0.000129247	163166	273255	-54044.3	
11985	0.564356	-0.906647	1.13902	-0.0275263	0.000576864	8.70923e-05	-217269	218694	134101	
12014	0.564356	-0.906647	1.13902	-0.0278848	0.000937709	0.00030836	-217269	218694	134101	
12045	0.565137	-0.905407	1.13592	-0.0279304	0.000983635	0.000336521	129306	202307	-375543	
12074	0.565339	-0.904365	1.13577	-0.027911	0.00101398	0.000280189	29451.2	151827	-21555.9	
12105	0.564363	-0.905986	1.13587	-0.027903	0.00105497	0.000274369	-142846	-237251	14675.7	
12134	0.565357	-0.903756	1.13886	-0.0279073	0.00104786	0.00027481	146381	328340	439734	
12165	0.564851	-0.905248	1.13907	-0.0278634	0.00114636	0.00040673	-74708.5	-220500	31303.4	
12224	0.565114	-0.904119	1.13827	-0.0204498	0.00136611	3.73896e-10	39068.8	167758	-119074	
12255	0.565114	-0.904119	1.13827	-0.0203713	0.00170331	-0.000239338	39068.8	167758	-119074	
12284	0.564647	-0.904364	1.13929	-0.0203432	0.00182409	-0.000325072	-70293.4	-36816	153395	
12315	0.565933	-0.903647	1.13768	-0.0203621	0.00181415	-0.000283655	44934.5	103705	16261.6	
12344	0.565747	-0.904397	1.13838	-0.0203352	0.00187637	-0.000273898	-28254.7	-114009	106314	
12375	0.564859	-0.906033	1.13815	-0.0203555	0.00179429	-0.000197352	-135521	-249590	-34977.8	
12404	0.568264	-0.900261	1.13824	-0.0204368	0.00164453	-0.000218338	522197	885294	15054.4	
12435	0.567389	-0.9014	1.138	-0.0202488	0.00196324	-0.000212919	-135022	-175842	-37399	
12494	0.567383	-0.901308	1.13757	-0.0156788	0.00104738	3.87019e-10	-896.454	14401.1	-67017.1	
12525	0.566278	-0.9049	1.13692	-0.015679	0.00105127	-1.80942e-05	-199989	-1.03805e+06	-84267.2	
12554	0.562944	-0.906037	1.13858	-0.015715	0.00086442	-3.32623e-05	-525070	-179002	261310	
12585	0.562781	-0.908278	1.14198	-0.0158568	0.000816089	3.72915e-05	-25732.3	-354566	537226	
12614	0.562781	-0.908278	1.14198	-0.0158861	0.000411884	0.000649729	-25732.3	-354566	537226	
12645	0.566384	-0.904704	1.1406	-0.0158954	0.00028424	0.00084313	574954	570510	-219307	
12674	0.563099	-0.909663	1.14345	-0.0155159	0.000660777	0.000698387	-525700	-793790	456035	
12734	0.562985	-0.902687	1.13921	-0.0123258	0.000823325	4.03295e-10	-18520	1.12464e+06	-684107	
12765	0.564628	-0.904125	1.13335	-0.0123313	0.00116072	-0.000205232	267435	-234003	-953087	
12794	0.567338	-0.899258	1.13414	-0.012235	0.00107648	-0.000548343	442737	795168	130111	
12825	0.565742	-0.903106	1.13386	-0.0120624	0.00138659	-0.0004976	-261965	-631706	-46183.3	
12855	0.567487	-0.90012	1.13377	-0.0121802	0.00110232	-0.000518382	287617	492259	-15830.3	
12885	0.566178	-0.902117	1.13357	-0.0120163	0.00138291	-0.000527405	-216680	-330562	-33330.6	
12914	0.566561	-0.902062	1.13351	-0.0120878	0.00127383	-0.000538404	63858.8	9287.7	-10140.5	
12944	0.565995	-0.904507	1.13199	-0.012061	0.00127773	-0.000542663	-94745.3	-408861	-254061	
12974	0.566181	-0.907911	1.13219	-0.0121065	0.00108147	-0.000664613	31220.9	-571531	33574.4	
13005	0.564343	-0.908696	1.13367	-0.0120877	0.000738555	-0.000644468	-309923	-132361	250479	
13034	0.565899	-0.905763	1.13121	-0.0122365	0.000675022	-0.000524238	263844	497037	-416828	
13065	0.568035	-0.901424	1.13192	-0.0121336	0.000868866	-0.000686801	363741	739238	120054	
13094	0.573184	-0.901972	1.13578	-0.0119699	0.00120152	-0.000632776	880885	-93850.9	660716	
13125	0.573995	-0.901962	1.136	-0.0117585	0.001179	-0.000474205	139456	1698.54	38553.6	
13154	0.569428	-0.904195	1.1367	-0.011725	0.00117941	-0.000464952	-789155	-385874	121098	
13185	0.569039	-0.905878	1.13512	-0.0120091	0.00104049	-0.000421357	-67520.9	-291933	-274301	
13215	0.569039	-0.905878	1.13512	-0.0120942	0.000672656	-0.000766976	-67520.9	-291933	-274301	
13275	0.572877	-0.903923	1.13568	-0.00717305	0.000479095	6.63649e-11	312177	876050	-489964	
13335	0.573773	-0.898429	1.13451	-0.00675425	0.000451114	1.29594e-10	693328	2.34937e+06	-753569	
13364	0.571289	-0.903386	1.1346	-0.00640066	0.0016493	-0.00038432	-442568	-882946	16889.4	
13395	0.570407	-0.903364	1.13468	-0.00663964	0.0011725	-0.0003752	-157830	3883.05	14682.3	
13424	0.571054	-0.905045	1.13702	-0.00669173	0.00117379	-0.000370355	116424	-302366	419971	
13455	0.569402	-0.907086	1.13871	-0.00664283	0.00104679	-0.000193967	-298506	-368710	306086	
13484	0.569402	-0.907086	1.13871	-0.0070279	0.000571156	0.000200884	-298506	-368710	306086	
13514	0.567291	-0.910155	1.13844	-0.00708163	0.000504788	0.00025598	166196	-143170	70200.1	
13545	0.562861	-0.918487	1.14055	-0.00703177	0.000461837	0.00027704	-811470	-1.5263e+06	385521	
13574	0.563376	-0.917064	1.13776	-0.00749431	-0.000408155	0.000496787	94637.6	261316	-511442	
13604	0.562957	-0.91642	1.13518	-0.00746876	-0.0003376	0.000358698	-77458.9	119183	-477783	
13634	0.56535	-0.913117	1.13634	-0.00748038	-0.000319722	0.00028703	444514	613415	216120	
13665	0.568884	-0.911912	1.13567	-0.00738703	-0.000190905	0.000332416	659235	224911	-125798	
13695	0.568884	-0.911912	1.13567	-0.00665528	5.87458e-05	0.00019278	659235	224911	-125798	
13754	0.5736	-0.899082	1.13886	-0.00443318	0.000296078	1.554e-10	1.01121e+06	1.86729e+06	1.25727e+06	
13785	0.570485	-0.904951	1.13818	-0.00376578	0.00152849	0.0008298	-590008	-1.11173e+06	-128657	
13814	0.568448	-0.911176	1.13935	-0.00411978	0.000861454	0.000752606	-387481	-1.18449e+06	223103	
13845	0.557928	-0.92834	1.13468	-0.00430577	0.000292901	0.000859696	-2.0119e+06	-3.28241e+06	-893048	
13874	0.565569	-0.911153	1.13749	-0.00521113	-0.00118418	0.000457824	1.46755e+06	3.30107e+06	540077	
13905	0.565569	-0.911153	1.13749	-0.00318591	0.00337129	0.00120313	1.46755e+06	3.30107e+06	540077	
13934	0.565569	-0.911153	1.13749	0.00011607	0.0107987	0.0024183	1.46755e+06	3.30107e+06	540077	
13964	0.563223	-0.910194	1.13186	0.000292176	0.0111948	0.00248311	-457084	186961	-1.09741e+06	
13994	0.570174	-0.900484	1.1394	0.000113913	0.0112677	0.00205512	1.35863e+06	1.89799e+06	1.47372e+06	
14054	0.57311	-0.897062	1.1412	-0.00326532	0.000218074	6.30576e-11	-142366	-339025	366263	
14085	0.570975	-0.899965	1.14145	-0.00330375	0.000126538	9.8891e-05	-422999	-575058	50873.9	
14114	0.571948	-0.894094	1.1381	-0.00337989	2.30273e-05	0.000108048	193717	1.16859e+06	-667504	
14145	0.571948	-0.894094	1.1381	-0.00316487	0.00132016	-0.000632882	193717	1.16859e+06	-667504	
14174	0.559692	-0.914649	1.12742	-0.00305445	0.00198625	-0.00101336	-2.45568e+06	-4.11864e+06	-2.13928e+06	
14205	0.567916	-0.899677	1.13417	-0.00460153	-0.000608489	-0.0023611	1.65448e+06	3.01214e+06	1.35803e+06	
14234	0.567916	-0.899677	1.13417	-0.00211981	0.00390973	-0.000324058	1.65448e+06	3.01214e+06	1.35803e+06	
14265	0.568254	-0.895418	1.1327	-0.00142493	0.00517483	0.000246315	68687.4	865066	-298430	
14325	0.561603	-0.911777	1.13712	-0.00254183	0.000169731	-3.59223e-10	-620539	-706927	328010	
14354	0.564571	-0.908494	1.1378	-0.00300723	-0.000360464	0.000246007	609282	674144	139590	
14385	0.564133	-0.906139	1.1395	-0.00258682	0.000104695	0.000342325	-90220.3	485709	350335	
14445	0.55391	-0.929591	1.13561	-0.00223136	0.000148972	-1.57177e-09	-2.28864e+06	-4.45671e+06	-693409	
14474	0.561388	-0.915897	1.13629	-0.00243733	-0.000252132	-6.24084e-05	-446936	-959967	-280567	
14505	0.561388	-0.915897	1.13629	-0.00289321	-0.0012313	-0.000348587	-446936	-959967	-280567	
14534	0.558573	-0.916937	1.13613	-0.00314796	-0.00177848	-0.000508511	-592935	-218918	-32866.2	
14565	0.55813	-0.916892	1.13428	-0.00332584	-0.00184416	-0.00051837	-93914.2	9411.16	-392053	
14594	0.560527	-0.914662	1.13242	-0.00337938	-0.00183879	-0.00074184	509303	473830	-394397	
14625	0.561049	-0.917916	1.13673	-0.00302796	-0.00151185	-0.00101397	111152	-693941	917715	
14654	0.558909	-0.919644	1.13663	-0.00297127	-0.00186576	-0.00054594	-458466	-370105	-21289.7	
14685	0.553204	-0.927937	1.12683	-0.00320509	-0.00205451	-0.000556797	-1.22729e+06	-1.78425e+06	-2.10886e+06	
14714	0.553204	-0.927937	1.12683	-0.00489875	-0.00451678	-0.00346702	-1.22729e+06	-1.78425e+06	-2.10886e+06	
14745	0.55696	-0.923865	1.12753	-0.00581922	-0.00585497	-0.00504867	813779	882339	151267	
14774	0.562916	-0.907066	1.12641	-0.00518447	-0.00516674	-0.00493068	1.29548e+06	3.65384e+06	-242127	
14805	0.54225	-0.941853	1.12641	-0.00495128	-0.00450905	-0.00497426	-3.72354e+06	-5.81429e+06	303119	
14865	0.517553	-0.935555	0.969502	0.00989879	0.0105768	-1.13393e-09	-1.05563e+06	1.74737e+06	-1.23295e+07	
14894	0.517553	-0.935555	0.969502	0.00885371	0.0123067	-0.0122062	-1.05563e+06	1.74737e+06	-1.23295e+07	
14925	0.510375	-0.931708	0.960585	0.00831534	0.0131979	-0.0184943	-1.59534e+06	854972	-1.98176e+06	
14954	0.511072	-0.940584	0.943769	0.00778888	0.01348	-0.0191483	155615	-1.98194e+06	-3.75487e+06	
14985	0.504053	-0.930124	0.918711	0.00784957	0.0127071	-0.0206127	-1.57335e+06	2.34465e+06	-5.61697e+06	
15014	0.508109	-0.920746	0.897269	0.00718876	0.0136918	-0.0229718	912674	2.11012e+06	-4.82456e+06	
15045	0.520826	-0.917059	0.790437	0.00746256	0.0143249	-0.0244192	2.87455e+06	833328	-2.41494e+07	
15074	0.513913	-0.924016	0.729293	0.0084974	0.0146249	-0.033113	-1.56818e+06	-1.57814e+06	-1.38715e+07	
15105	0.513913	-0.924016	0.729293	0.0065215	0.0126364	-0.0505911	-1.56818e+06	-1.57814e+06	-1.38715e+07	
15134	0.508325	-0.924002	0.678332	0.00529832	0.0114055	-0.0614108	-1.27554e+06	3039.84	-1.16318e+07	
15164	0.529391	-0.913011	0.596744	0.00422687	0.011408	-0.0711815	4.82624e+06	2.51819e+06	-1.86919e+07	
15194	0.523665	-0.916422	0.546308	0.0061091	0.0123901	-0.0784714	-1.31974e+06	-786101	-1.16236e+07	
15225	0.523665	-0.916422	0.546308	0.00436705	0.0113524	-0.0938145	-1.31974e+06	-786101	-1.16236e+07	
15254	0.507811	-0.930486	0.506562	0.00321888	0.0106685	-0.103927	-3.67487e+06	-3.26022e+06	-9.21304e+06	
15284	0.515241	-0.927238	0.479692	2.17388e-05	0.00783215	-0.111942	1.72914e+06	755920	-6.25309e+06	
15315	0.50167	-0.933245	0.42618	0.00157796	0.00851248	-0.11757	-3.1706e+06	-1.40343e+06	-1.25021e+07	
15345	0.533373	-0.90808	0.394651	-0.00118046	0.00729149	-0.128447	7.43596e+06	5.90243e+06	-7.39504e+06	
15375	0.529335	-0.909114	0.369359	0.00551191	0.0126037	-0.135103	-950885	-243486	-5.9555e+06	
15404	0.542873	-0.917451	0.336151	0.00468464	0.0123918	-0.140284	3.20024e+06	-1.9707e+06	-7.85009e+06	
15435	0.528216	-0.931051	0.313406	0.00756485	0.0106182	-0.147349	-3.47836e+06	-3.22756e+06	-5.39769e+06	
15465	0.51194	-0.958255	0.275494	0.00474738	0.00800389	-0.151721	-3.87901e+06	-6.48345e+06	-9.03562e+06	
15494	0.494332	-0.974927	0.264368	0.00160539	0.00275229	-0.15904	-4.21243e+06	-3.98858e+06	-2.66174e+06	
15525	0.498152	-0.969569	0.240127	-0.00130119	1.69543e-07	-0.160876	917915	1.2877e+06	-5.82529e+06	
15554	0.485792	-0.968483	0.242297	-0.000777978	0.000734159	-0.164197	-2.98285e+06	262005	523572	
15585	0.500046	-0.953603	0.224731	-0.00265717	0.000899223	-0.163867	3.45281e+06	3.60462e+06	-4.2551e+06	
15614	0.506623	-0.954344	0.221632	-0.000792653	0.00284572	-0.166165	1.59976e+06	-180296	-753622	
15645	0.488899	-0.957097	0.234645	-2.47695e-05	0.00275918	-0.166527	-4.32925e+06	-672506	3.17846e+06	
15674	0.489239	-0.957866	0.2401	-0.00171318	0.0024969	-0.165287	83248.6	-188426	1.338e+06	
15705	0.489239	-0.957866	0.2401	-0.00160329	0.00224818	-0.163521	83248.6	-188426	1.338e+06	
15734	0.485239	-0.952351	0.242474	-0.00154335	0.00211251	-0.162557	-987189	1.36092e+06	585950	
15765	0.494448	-0.939404	0.244246	-0.00219489	0.00301072	-0.162171	2.28244e+06	3.20892e+06	439143	
15794	0.495813	-0.938428	0.242587	-0.000962379	0.00474353	-0.161934	339827	242846	-412829	
15825	0.520732	-0.930031	0.267351	-0.000789067	0.00486738	-0.162144	6.22691e+06	2.09828e+06	6.18839e+06	
15854	0.518476	-0.933663	0.295488	0.00182624	0.00574866	-0.159545	-565865	-911212	7.05968e+06	
15885	0.503697	-0.942589	0.31215	0.00158857	0.00536595	-0.15658	-3.72264e+06	-2.24821e+06	4.19697e+06	
15914	0.518047	-0.943103	0.334291	0.0003601	0.00462404	-0.155195	3.62904e+06	-130040	5.59939e+06	
15945	0.523961	-0.936215	0.348016	0.00144881	0.00458503	-0.153515	1.50169e+06	1.74905e+06	3.4852e+06	
15975	0.535981	-0.91086	0.365021	0.00176417	0.00495233	-0.152783	3.06458e+06	6.46396e+06	4.33531e+06	
16005	0.544564	-0.91897	0.376954	0.00240773	0.00630976	-0.151873	2.19656e+06	-2.07556e+06	3.05408e+06	
16035	0.530111	-0.931955	0.388365	0.00280311	0.00593616	-0.151323	-3.71319e+06	-3.33621e+06	2.93194e+06	
16064	0.557967	-0.926336	0.38189	0.00246892	0.0056359	-0.151059	7.18543e+06	1.44944e+06	-1.67029e+06	
16095	0.548908	-0.936664	0.40159	0.00311561	0.00576635	-0.15121	-2.34578e+06	-2.67456e+06	5.10139e+06	
16124	0.548908	-0.936664	0.40159	0.00086366	0.00319878	-0.146312	-2.34578e+06	-2.67456e+06	5.10139e+06	
16155	0.556467	-0.927237	0.400496	-0.000895678	0.00119286	-0.142486	1.96678e+06	2.4527e+06	-284797	
16184	0.57058	-0.914868	0.402409	0.000520406	0.0029588	-0.142691	3.68548e+06	3.23025e+06	499737	
16214	0.575583	-0.917233	0.407592	0.00162605	0.00392788	-0.142541	1.31357e+06	-621051	1.36071e+06	
16245	0.575583	-0.917233	0.407592	0.00324174	0.00316399	-0.140868	1.31357e+06	-621051	1.36071e+06	
16274	0.569962	-0.922469	0.40901	0.00410869	0.00275409	-0.13997	-1.48464e+06	-1.38299e+06	374787	
16305	0.572412	-0.926579	0.409185	0.00330699	0.00200728	-0.139767	649960	-1.09025e+06	46198.1	
16334	0.572812	-0.925074	0.405561	0.00352148	0.00164749	-0.139752	106527	401171	-965470	
16365	0.575277	-0.918989	0.403712	0.00354704	0.00174377	-0.139984	659396	1.62795e+06	-494765	
16394	0.575138	-0.927744	0.402348	0.00358661	0.00184145	-0.140013	-37223.8	-2.35245e+06	-366558	
16425	0.575138	-0.927744	0.402348	0.00354976	-0.00048747	-0.140376	-37223.8	-2.35245e+06	-366558	
16454	0.572356	-0.929897	0.40391	0.0035196	-0.00239295	-0.140673	-750876	-580962	421592	
16485	0.575282	-0.928456	0.403094	0.0030015	-0.00279381	-0.140382	792838	390318	-220988	
16515	0.585769	-0.943304	0.376754	0.00350099	-0.00254791	-0.140521	2.85318e+06	-4.0393e+06	-7.16587e+06	
16544	0.594559	-0.930489	0.373762	0.00495611	-0.00460796	-0.144176	2.40077e+06	3.50039e+06	-817250	
16575	0.592603	-0.937005	0.372131	0.00610848	-0.00292777	-0.144568	-536301	-1.78687e+06	-447253	
16604	0.593149	-0.938802	0.365384	0.00591541	-0.00357104	-0.144729	150346	-494675	-1.85733e+06	
16635	0.591881	-0.943058	0.366268	0.00596051	-0.00371945	-0.145287	-350501	-1.17631e+06	244339	
16664	0.601126	-0.949949	0.365559	0.00589742	-0.00393118	-0.145243	2.56543e+06	-1.91211e+06	-196983	
16725	0.600739	-0.947679	0.364351	0.0744349	0.0236178	1.63499e-09	-107843	632402	-336423	
16785	0.602159	-0.953775	0.362251	0.0604659	0.0339138	5.14787e-10	398808	-1.7113e+06	-589454	
16814	0.606403	-0.950017	0.358991	0.0607889	0.0325277	-0.000477457	1.19585e+06	1.05922e+06	-918693	
16845	0.602337	-0.955001	0.364063	0.0616858	0.0333221	-0.00116648	-1.15038e+06	-1.41008e+06	1.43506e+06	
16874	0.604581	-0.955061	0.368529	0.0609956	0.032476	-0.000305442	637497	-17010.5	1.26841e+06	
16905	0.604286	-0.948889	0.369603	0.0613398	0.0324668	0.000379502	-84004.8	1.76006e+06	306300	
16934	0.603526	-0.956479	0.373089	0.061302	0.0332589	0.000517337	-217634	-2.17279e+06	998026	
16965	0.607933	-0.961443	0.376947	0.0612237	0.0324767	0.000876626	1.26644e+06	-1.42663e+06	1.10873e+06	
17025	0.601443	-0.967771	0.378035	-0.0288982	0.060727	0.00383694	-1.87042e+06	-1.82392e+06	313587	
17054	0.604378	-0.972459	0.379702	-0.0296838	0.059961	0.00396865	852162	-1.36124e+06	484059	
17085	0.606468	-0.973331	0.381888	-0.0294537	0.0595934	0.00409935	609512	-254184	637449	
17115	0.606468	-0.973331	0.381888	-0.0287589	0.0593037	0.00482604	609512	-254184	637449	
17145	0.606468	-0.973331	0.381888	-0.0274972	0.0587775	0.00614556	609512	-254184	637449	
17174	0.606797	-0.973393	0.386304	-0.0271132	0.0586174	0.00654715	96701.2	-18331.9	1.29918e+06	
17205	0.611661	-0.96685	0.384309	-0.0270581	0.0586069	0.00728769	1.43681e+06	1.93262e+06	-589078	
17234	0.613531	-0.987781	0.384038	-0.0264546	0.0594186	0.00704027	554329	-6.20675e+06	-80439.5	
17265	0.61026	-0.976073	0.383445	-0.0262717	0.0573704	0.00701373	-973887	3.48551e+06	-176521	
17325	0.625136	-0.978045	0.38037	0.0616463	-0.000395745	3.18693e-10	4.4458e+06	-589169	-918863	
17355	0.623585	-0.98743	0.385366	0.0644472	-0.000766921	-0.000578883	-465979	-2.81966e+06	1.50096e+06	
17385	0.62294	-0.985287	0.386732	0.0641955	-0.00228954	0.000231634	-194705	646432	411917	
17415	0.624551	-0.977125	0.380776	0.0641138	-0.00201803	0.00040464	487944	2.47116e+06	-1.80314e+06	
17444	0.620084	-0.991047	0.390303	0.0642748	-0.00120255	-0.000190396	-1.35766e+06	-4.23113e+06	2.89524e+06	
17475	0.634172	-0.976971	0.382762	0.0639489	-0.00221802	0.000504462	4.29812e+06	4.29451e+06	-2.30082e+06	
17505	0.621614	-0.987428	0.382815	0.0645937	-0.00157385	0.000159339	-3.84602e+06	-3.20254e+06	16243.1	
17535	0.621614	-0.987428	0.382815	0.0606707	-0.00484043	0.000175907	-3.84602e+06	-3.20254e+06	16243.1	
17565	0.621614	-0.987428	0.382815	0.053171	-0.0110854	0.000207582	-3.84602e+06	-3.20254e+06	16243.1	
17595	0.620862	-0.98593	0.379814	0.0501711	-0.0135834	0.000220251	-232018	462455	-926246	
17625	0.619213	-0.989133	0.382182	0.050018	-0.0132781	-0.000391071	-510997	-992472	733799	
17655	0.621237	-0.984577	0.38297	0.049742	-0.0138141	5.18019e-06	629651	1.41723e+06	245095	
17685	0.621863	-0.984887	0.384462	0.0500254	-0.0131763	0.000115473	195350	-96831.7	465810	
17715	0.632961	-0.971612	0.375971	0.0500898	-0.0132083	0.00026919	3.47853e+06	4.16062e+06	-2.66125e+06	
17744	0.625812	-0.974133	0.377195	0.0501942	-0.0130835	0.000189353	-2.25054e+06	-793440	385095	
17775	0.625812	-0.974133	0.377195	0.0480337	-0.0138452	0.000559044	-2.25054e+06	-793440	385095	
17804	0.648735	-0.963044	0.374518	0.0476961	-0.0139642	0.000616808	2.27785e+06	681470	-32868.2	
17864	0.637558	-0.965563	0.377321	0.0146715	-0.0059209	3.35503e-10	-3.5536e+06	-801004	891058	
17895	0.632074	-0.972496	0.380433	0.0115799	-0.00661778	0.000775221	-1.75055e+06	-2.21275e+06	993232	
17924	0.633757	-0.973451	0.37859	0.0104245	-0.00807819	0.00143075	539338	-306172	-590653	
17955	0.629113	-0.970531	0.380935	0.010732	-0.00825271	0.00109408	-1.49397e+06	939476	754567	
17984	0.632859	-0.969915	0.379666	0.0104631	-0.0080836	0.0012299	1.21092e+06	198848	-410248	
18015	0.632859	-0.969915	0.379666	0.0118072	-0.00786288	0.000774528	1.21092e+06	198848	-410248	
18044	0.634566	-0.977045	0.381174	0.0125337	-0.00774357	0.000528379	554399	-2.31614e+06	490016	
18104	0.651406	-0.960617	0.378194	0.00644493	-0.00981993	2.58686e-10	5.63421e+06	4.81983e+06	-167591	
18135	0.648497	-0.960375	0.37628	0.0081352	-0.00837399	-5.02769e-05	-955602	79578.6	-628850	
18164	0.645445	-0.958396	0.378744	0.00802052	-0.00836444	-0.000125739	-1.00643e+06	652727	812599	
18224	0.643804	-0.955904	0.380881	-0.00500964	-0.002983	6.61303e-10	-543022	824520	707111	
18285	0.648442	-0.964513	0.377906	-0.0191137	0.00424161	4.21593e-10	1.54531e+06	-2.86864e+06	-991270	
18314	0.650522	-0.969554	0.383257	-0.0183256	0.00277861	-0.000505547	696286	-1.6874e+06	1.79149e+06	
18345	0.649135	-0.962426	0.383522	-0.0180541	0.00212052	0.000193134	-466105	2.39512e+06	89174.6	
18375	0.651812	-0.968964	0.383515	-0.0182079	0.00291091	0.000222561	902874	-2.20488e+06	-2591.13	
18435	0.650546	-0.965025	0.384039	-0.0258605	0.0101836	2.21763e-10	106879	269332	116858	
18494	0.650606	-0.965735	0.384696	-0.0310225	0.0135277	3.68818e-10	20476.9	-241977	224008	
18525	0.650056	-0.965328	0.384734	-0.0310047	0.0133172	0.000194887	-188169	139200	13039	
18554	0.648935	-0.964442	0.385377	-0.0311458	0.0134216	0.000204666	-384861	304334	220816	
18585	0.644622	-0.969021	0.38596	-0.0313883	0.0136133	0.000343781	-1.48628e+06	-1.57797e+06	200789	
18614	0.646185	-0.970321	0.384894	-0.032503	0.0124299	0.000494372	539965	-449485	-368507	
18645	0.645675	-0.969706	0.385471	-0.0321466	0.0121332	0.000251158	-176841	213340	200396	
18674	0.641488	-0.962568	0.386035	-0.0322368	0.012242	0.000353359	-1.45749e+06	2.48479e+06	196087	
18705	0.645517	-0.969722	0.382624	-0.0328052	0.0132111	0.000429833	1.40771e+06	-2.49959e+06	-1.19171e+06	
18734	0.645517	-0.969722	0.382624	-0.0310315	0.0100616	-0.00107172	1.40771e+06	-2.49959e+06	-1.19171e+06	
18765	0.648936	-0.956004	0.385628	-0.0298068	0.00788693	-0.00210851	1.20029e+06	4.81544e+06	1.05455e+06	
18795	0.634347	-0.975924	0.382369	-0.0289786	0.0112096	-0.00138087	-5.14116e+06	-7.01946e+06	-1.14861e+06	
18825	0.629108	-0.969417	0.38565	-0.0320633	0.00699791	-0.00207004	-1.85256e+06	2.30085e+06	1.1605e+06	
18855	0.628717	-0.974982	0.387613	-0.0329525	0.00810232	-0.001513	-138661	-1.97466e+06	696377	
18885	0.628538	-0.976905	0.388479	-0.0330066	0.0073322	-0.00124141	-63884	-685012	308499	
18944	0.628965	-0.978153	0.387312	-0.0544686	0.0285972	1.9895e-10	1.24087e+06	-2.66103e+06	-237595	
18975	0.62664	-0.975655	0.386491	-0.054357	0.0283577	-2.13833e-05	-837155	899153	-295762	
19004	0.62664	-0.975655	0.386491	-0.0551606	0.0292209	-0.000305315	-837155	899153	-295762	
19035	0.625655	-0.976624	0.386555	-0.0558889	0.0300031	-0.000562628	-355697	-349877	23145.7	
19064	0.627333	-0.984235	0.385651	-0.0561664	0.0297302	-0.000544574	608086	-2.75879e+06	-327360	
19095	0.624068	-0.974987	0.386136	-0.0557468	0.0278266	-0.000770453	-1.18764e+06	3.36399e+06	176333	
19124	0.627824	-0.989321	0.390878	-0.0563881	0.0296432	-0.000675233	1.37111e+06	-5.2323e+06	1.73103e+06	
19155	0.626355	-0.986168	0.390181	-0.0557711	0.0272887	0.000103731	-538127	1.1551e+06	-255561	
19215	0.625954	-0.98696	0.391289	-0.0294914	-0.055026	-0.000555617	-147145	-291210	407303	
19244	0.624628	-0.986304	0.391613	-0.0295621	-0.0551658	-0.000360111	-490284	242646	119911	
19275	0.625659	-0.986339	0.389917	-0.0297239	-0.0550857	-0.000320541	382648	-13029.7	-629452	
19305	0.616145	-0.981781	0.379912	-0.0296205	-0.0550893	-0.000490493	-3.54243e+06	1.697e+06	-3.72528e+06	
19335	0.619686	-0.976773	0.381125	-0.0311084	-0.0543765	-0.00205511	1.32189e+06	1.86942e+06	452928	
19455	0.619473	-0.98587	0.383363	-0.0729953	0.0356857	3.93883e-10	-1.21042e+06	-2.42329e+06	937527	
19485	0.615267	-0.990308	0.385517	-0.0739757	0.0337229	0.000759397	-1.59245e+06	-1.68009e+06	815361	
19515	0.611034	-1.00307	0.38776	-0.07517	0.0324628	0.00137092	-1.60793e+06	-4.84813e+06	852105	
19545	0.617144	-0.9834	0.382677	-0.076183	0.0294085	0.00190774	2.32893e+06	7.49753e+06	-1.93742e+06	
19575	0.614543	-0.991055	0.385519	-0.0748555	0.0336821	0.000803417	-994736	-2.92745e+06	1.08683e+06	
19604	0.614717	-0.990485	0.384561	-0.075333	0.0322769	0.0013251	66572.2	218477	-367505	
19635	0.618029	-0.979529	0.381742	-0.075303	0.0323752	0.00115972	1.27518e+06	4.21741e+06	-1.08517e+06	
19665	0.611137	-0.998349	0.385013	-0.0748057	0.03402	0.000736505	-2.66181e+06	-7.26797e+06	1.26327e+06	
19694	0.611137	-0.998349	0.385013	-0.0781596	0.0248623	0.00232822	-2.66181e+06	-7.26797e+06	1.26327e+06	
19725	0.611137	-0.998349	0.385013	-0.083989	0.00894548	0.00509478	-2.66181e+06	-7.26797e+06	1.26327e+06	
19754	0.613855	-0.996402	0.3849	-0.0861451	0.00305842	0.00611803	1.05784e+06	757367	-44053.2	
19785	0.612284	-0.991568	0.384826	-0.0853199	0.00364917	0.00608367	-613602	1.88758e+06	-28770.3	
19814	0.610385	-0.980532	0.380313	-0.0857617	0.00500823	0.00606296	-743464	4.32203e+06	-1.76734e+06	
19845	0.604568	-0.9978	0.38464	-0.0862301	0.00773111	0.00494953	-2.28612e+06	-6.78629e+06	1.70024e+06	
19875	0.60359	-0.999871	0.385336	-0.0875332	0.00386292	0.00591867	-385525	-816470	274580	
19904	0.604513	-0.9958	0.384419	-0.0877183	0.00347102	0.00605047	364722	1.61025e+06	-362705	
19935	0.60701	-0.984876	0.381935	-0.0875541	0.00419563	0.00588725	990924	4.33462e+06	-985713	
19965	0.605078	-0.994929	0.384792	-0.0871677	0.00588613	0.00550283	-768884	-4.00199e+06	1.1375e+06	
19994	0.5894	-0.985	0.386687	-0.0873753	0.00480559	0.00580995	-6.26192e+06	3.96595e+06	756634	
20025	0.598125	-0.975965	0.380435	-0.0888781	0.00575742	0.00599154	3.49581e+06	3.61994e+06	-2.50518e+06	
20055	0.557512	-1.03042	0.389129	-0.0878294	0.0068434	0.00523999	-1.63182e+07	-2.18802e+07	3.49327e+06	
20085	0.546873	-1.02366	0.381958	-0.0922353	0.000935749	0.00618317	-4.28818e+06	2.72485e+06	-2.88998e+06	
20175	0.533264	-1.02538	0.384859	-0.0760614	0.0459832	4.38509e-10	-5.82187e+06	-2.53393e+06	-829014	
20235	0.529877	-1.03023	0.390689	-0.0663266	0.0424678	8.66599e-11	-2.42611e+06	-7.12107e+06	2.42055e+06	
20294	0.532038	-1.02122	0.38245	-0.0675174	0.0552256	4.7856e-11	2.75091e+06	3.45957e+06	-1.61118e+06	
20325	0.532038	-1.02122	0.38245	-0.0649591	0.058443	-0.0014984	2.75091e+06	3.45957e+06	-1.61118e+06	
20355	0.504555	-1.0468	0.386522	-0.0625658	0.0614529	-0.00290012	-1.13546e+07	-1.05697e+07	1.68271e+06	
20384	0.517449	-1.03272	0.389076	-0.0714224	0.0532085	-0.00158761	5.3441e+06	5.8369e+06	1.05823e+06	
20414	0.513778	-1.0401	0.388156	-0.0674143	0.0575862	-0.000793945	-1.52609e+06	-3.06825e+06	-382312	
20444	0.511429	-1.04386	0.380398	-0.0684673	0.0554691	-0.00105774	-979546	-1.56691e+06	-3.23507e+06	
20475	0.497622	-1.0513	0.394186	-0.0691432	0.0543879	-0.00328994	-5.77552e+06	-3.11521e+06	5.76721e+06	
20504	0.493015	-1.0528	0.394932	-0.0724352	0.0526123	-2.63003e-06	-1.93305e+06	-628901	313141	
20534	0.492463	-1.06227	0.403045	-0.0734791	0.0522726	0.000166466	-232475	-3.9835e+06	3.41475e+06	
20565	0.484763	-1.05534	0.399343	-0.0735907	0.0503606	0.00180554	-3.25129e+06	2.92429e+06	-1.56339e+06	
20595	0.484763	-1.05534	0.399343	-0.0780775	0.0543961	-0.000351936	-3.25129e+06	2.92429e+06	-1.56339e+06	
20624	0.475454	-1.05209	0.400214	-0.080711	0.0567648	-0.00161828	-3.94933e+06	1.38064e+06	369360	
20685	0.486112	-1.06132	0.402187	-0.0649312	-0.0854348	-0.000443718	4.53863e+06	-3.93168e+06	840333	
20715	0.477956	-1.08079	0.391955	-0.0620718	-0.0879118	8.56917e-05	-3.49264e+06	-8.33701e+06	-4.38158e+06	
20745	0.482195	-1.07318	0.390336	-0.0640626	-0.0926639	-0.00241181	1.82102e+06	3.26585e+06	-695544	
20774	0.474444	-1.07047	0.389316	-0.0631339	-0.0909983	-0.00276654	-3.33953e+06	1.16864e+06	-439534	
20805	0.464359	-1.07984	0.38676	-0.0643362	-0.0905776	-0.00292477	-4.36014e+06	-4.04798e+06	-1.10506e+06	
20835	0.476184	-1.06846	0.386878	-0.0669522	-0.0930064	-0.0035878	5.12303e+06	4.92946e+06	50932.9	
20864	0.465312	-1.0817	0.391507	-0.0637247	-0.0899008	-0.00355572	-4.72304e+06	-5.7531e+06	2.01116e+06	
20895	0.464808	-1.07886	0.386203	-0.0678338	-0.094906	-0.00180601	-219491	1.238e+06	-2.3095e+06	
20924	0.468946	-1.08575	0.387923	-0.0679852	-0.0940518	-0.00339956	1.8079e+06	-3.01252e+06	751411	
20954	0.468256	-1.084	0.387319	-0.0669547	-0.0957689	-0.00297126	-302457	769042	-264507	
20985	0.467768	-1.08251	0.386661	-0.0671453	-0.0952844	-0.0031379	-214333	653662	-289021	
21074	0.46643	-1.07835	0.385497	-0.0448744	0.0260063	5.78656e-10	-619391	2.32207e+06	-645692	
21105	0.46513	-1.0739	0.383701	-0.0449301	0.0262153	-5.81117e-05	-350826	797244	-467993	
21134	0.46513	-1.0739	0.383701	-0.0452669	0.0269807	-0.000507385	-350826	797244	-467993	
21165	0.46513	-1.0739	0.383701	-0.04593	0.0284875	-0.00139189	-350826	797244	-467993	
21195	0.466375	-1.07309	0.382702	-0.0460879	0.0288462	-0.00160249	558369	360005	-448220	
21255	0.467552	-1.07787	0.384425	-0.0475118	0.0285586	3.85602e-10	530223	-2.14916e+06	775729	
21285	0.468597	-1.08161	0.38562	-0.0472732	0.0275914	0.000349078	472704	-1.69418e+06	540719	
21315	0.469575	-1.07537	0.383514	-0.0469754	0.0265241	0.000689731	443704	2.82907e+06	-954827	
21405	0.443565	-1.07342	0.3777	-0.0330063	0.0123214	1.38728e-10	1.23432e+06	4.44426e+06	-2.80489e+06	
21495	0.448818	-1.08487	0.379426	-0.026949	0.0180618	2.15962e-10	1.35143e+06	337191	65859.7	
21524	0.44379	-1.07077	0.376471	-0.0260165	0.0182945	4.54434e-05	-2.32427e+06	6.51813e+06	-1.36619e+06	
21555	0.444722	-1.0742	0.37472	-0.02769	0.0229876	-0.000938214	432005	-1.5915e+06	-811607	
21585	0.444534	-1.07832	0.374615	-0.0274826	0.0222236	-0.00132779	-87694.2	-1.91801e+06	-48840.5	
21614	0.443251	-1.07875	0.3749	-0.0275221	0.0213605	-0.00134976	-598515	-196427	132863	
21644	0.443251	-1.07875	0.3749	-0.02833	0.0210954	-0.0011704	-598515	-196427	132863	
21675	0.437844	-1.0727	0.377301	-0.0285276	0.0210305	-0.00112655	-2.53759e+06	2.83886e+06	1.1269e+06	
21704	0.443206	-1.09017	0.373637	-0.0298979	0.0225635	-0.000518027	2.52172e+06	-8.21712e+06	-1.72289e+06	
21735	0.444811	-1.07491	0.37353	-0.0284605	0.0178798	-0.00150007	756803	7.19616e+06	-50639.5	
21765	0.44411	-1.07886	0.372165	-0.0284151	0.0183115	-0.00150311	-1.01277e+06	1.23574e+06	800289	
21825	0.435123	-1.0861	0.377034	-0.00539927	0.00173546	1.36456e-10	1.15693e+06	-1.98379e+06	2.05953e+06	
21855	0.439015	-1.09056	0.374713	-0.00515631	0.00131886	0.000432501	1.85768e+06	-2.12732e+06	-1.10806e+06	
21915	0.436837	-1.08806	0.372932	-0.0128391	0.00880293	1.62383e-10	3.22721e+06	-2.08814e+06	458165	
21945	0.436837	-1.08806	0.372932	-0.00916004	0.00642245	0.000522308	3.22721e+06	-2.08814e+06	458165	
21974	0.433978	-1.0875	0.373276	-0.00673963	0.00485634	0.000865931	-1.37727e+06	269428	165616	
22005	0.432637	-1.07998	0.375629	-0.00789654	0.00508266	0.00100505	-647558	3.63377e+06	1.13657e+06	
22035	0.439155	-1.08367	0.371769	-0.00824622	0.0070449	0.0016188	3.15963e+06	-1.79066e+06	-1.87139e+06	
22064	0.435203	-1.08403	0.373619	-0.00616086	0.00586306	0.000383677	-1.92041e+06	-172079	898823	
22094	0.438819	-1.09468	0.371644	-0.00742833	0.00574949	0.0009769	1.76169e+06	-5.18869e+06	-961752	
22125	0.438819	-1.09468	0.371644	-0.00468009	-0.00234487	-0.000523433	1.76169e+06	-5.18869e+06	-961752	
22155	0.435802	-1.08053	0.374218	-0.00441584	-0.00312317	-0.000667695	-1.4801e+06	6.93886e+06	1.26262e+06	
22184	0.442621	-1.07983	0.373898	-0.00468226	-0.00187417	-0.000440424	3.35391e+06	344525	-157226	
22214	0.436004	-1.08587	0.378623	-0.00427979	-0.00183283	-0.000459291	-3.26374e+06	-2.97838e+06	2.33081e+06	
22274	0.43003	-1.08463	0.371113	0.0115678	-0.0116746	1.73605e-10	-683217	1.73525e+06	-3.6211e+06	
22305	0.432619	-1.08241	0.373083	0.0111579	-0.0106334	-0.00217266	1.28593e+06	1.10102e+06	978357	
22334	0.431366	-1.07135	0.373922	0.0118909	-0.0100059	-0.001615	-624083	5.50957e+06	418080	
22365	0.429601	-1.0713	0.370154	0.0117411	-0.00868356	-0.00151466	-881952	20715.1	-1.88371e+06	
22394	0.433062	-1.07737	0.374161	0.0115823	-0.00867983	-0.00185372	1.73444e+06	-3.04003e+06	2.00865e+06	
22425	0.434649	-1.07616	0.375272	0.0120506	-0.00950064	-0.00131139	797792	606908	558099	
22455	0.432752	-1.077	0.374929	0.0124096	-0.00922753	-0.00106024	-955434	-424043	-172628	
22485	0.435628	-1.07529	0.373493	0.0117791	-0.0095074	-0.00117418	1.45143e+06	862749	-724566	
22514	0.436036	-1.07694	0.371246	0.0121709	-0.00927446	-0.00136981	206342	-831687	-1.13804e+06	
22545	0.436165	-1.07848	0.371074	0.0122205	-0.00947407	-0.00164294	65751.7	-784527	-87605.9	
22574	0.436242	-1.0832	0.372267	0.0122264	-0.00954467	-0.00165082	39095.7	-2.40481e+06	607798	
22605	0.436242	-1.0832	0.372267	0.0122663	-0.0119976	-0.00103087	39095.7	-2.40481e+06	607798	
22635	0.434607	-1.0826	0.37187	0.0122792	-0.0127912	-0.000830297	-836954	305417	-203095	
22665	0.435375	-1.08462	0.373131	0.0118272	-0.0126262	-0.000939969	393952	-1.03247e+06	646803	
22695	0.435573	-1.08403	0.373174	0.0121227	-0.0134006	-0.000454866	101686	301874	22136.8	
22725	0.436978	-1.09245	0.373867	0.012202	-0.0131651	-0.0004376	723891	-4.33764e+06	357075	
22755	0.436171	-1.08783	0.372586	0.0125277	-0.0151171	-0.000276916	-416964	2.38741e+06	-662300	
22785	0.436315	-1.09918	0.37492	0.0122776	-0.0136846	-0.000674296	74135.6	-5.87949e+06	1.20957e+06	
22814	0.436627	-1.09935	0.376011	0.0123354	-0.0182706	0.000269165	162427	-90003.4	566414	
22844	0.443042	-1.10188	0.378523	0.0124133	-0.0183138	0.000541044	3.3426e+06	-1.31699e+06	1.30887e+06	
22875	0.446493	-1.10637	0.379556	0.01482	-0.0192621	0.00148343	1.80228e+06	-2.34444e+06	539570	
22904	0.463065	-1.10695	0.381888	0.0156851	-0.0203874	0.00174242	8.68152e+06	-303415	1.22143e+06	
22935	0.462584	-1.11558	0.384654	0.0175082	-0.0204511	0.00199892	-253020	-4.5406e+06	1.45451e+06	
22965	0.475631	-1.12075	0.375011	0.0174475	-0.0215409	0.00234801	6.87595e+06	-2.72062e+06	-5.08220e+06	
22995	0.477652	-1.13202	0.376812	0.0180663	-0.0217857	0.00189061	1.06874e+06	-5.9575e+06	951791	
23024	0.477652	-1.13202	0.376812	0.0190923	-0.0275049	0.00280433	1.06874e+06	-5.9575e+06	951791	
23055	0.484034	-1.12166	0.378138	0.0200221	-0.0326879	0.00363239	3.38329e+06	5.49118e+06	703297	
23085	0.502585	-1.12771	0.37312	0.0228641	-0.0280754	0.00422316	9.86248e+06	-3.21889e+06	-2.66774e+06	
23115	0.503487	-1.14715	0.375347	0.0246394	-0.0286548	0.00374296	481535	-1.03771e+07	1.18895e+06	
23175	0.52014	-1.14165	0.373609	0.393539	0.0391402	2.38407e-10	8.91926e+06	2.94216e+06	-930564	
23205	0.50757	-1.15648	0.383691	0.401031	0.0416116	-0.000781674	-6.75235e+06	-7.96378e+06	5.41564e+06	
23235	0.521231	-1.162	0.380409	0.395967	0.0356388	0.00328005	7.35919e+06	-2.97472e+06	-1.76819e+06	
23265	0.538993	-1.16476	0.377408	0.400603	0.0337647	0.00216609	9.59674e+06	-1.49318e+06	-1.62099e+06	
23295	0.561766	-1.16122	0.372088	0.406073	0.0329136	0.00124213	1.23379e+07	1.92057e+06	-2.8826e+06	
23324	0.583411	-1.1591	0.374264	0.411995	0.0338355	-0.00014152	1.17588e+07	1.15322e+06	1.18211e+06	
23355	0.593267	-1.16267	0.369885	0.416581	0.0342852	0.000319502	5.36998e+06	-1.94879e+06	-2.38542e+06	
23385	0.603919	-1.17566	0.36624	0.418353	0.0336421	-0.000467686	5.81945e+06	-7.09446e+06	-1.99175e+06	
23415	0.617581	-1.18986	0.365011	0.419925	0.0317266	-0.00100546	7.48457e+06	-7.78085e+06	-673231	
23474	0.658664	-1.19127	0.367951	0.512248	0.0864062	2.10446e-10	6.3897e+06	-3.38956e+06	2.775e+06	
23565	0.682959	-1.21816	0.362193	0.539487	0.107061	4.27878e-10	-2.22487e+06	-1.54456e+07	-205302	
23594	0.703741	-1.21099	0.358403	0.537618	0.0940864	-0.000172453	1.15416e+07	3.98049e+06	-2.10486e+06	
23625	0.745125	-1.19752	0.362939	0.543504	0.0961165	-0.00124593	2.30646e+07	7.50874e+06	2.52815e+06	
23655	0.75306	-1.21811	0.354582	0.553883	0.0994954	-0.000108264	4.43474e+06	-1.1507e+07	-4.67069e+06	
23685	0.758677	-1.22026	0.36017	0.555746	0.0946625	-0.00206995	3.14693e+06	-1.20607e+06	3.13098e+06	
23715	0.774692	-1.23553	0.36279	0.556879	0.0942283	-0.0009428	8.99783e+06	-8.57701e+06	1.47252e+06	
23744	0.813962	-1.22284	0.36208	0.561197	0.0901113	-0.000235989	2.21101e+07	7.14151e+06	-400133	
23775	0.822545	-1.23669	0.370841	0.57181	0.0935393	-0.000428053	4.8449e+06	-7.81365e+06	4.94569e+06	
23804	0.83298	-1.24698	0.36176	0.573554	0.0907263	0.0013524	5.90662e+06	-5.83007e+06	-5.1405e+06	
23864	0.84704	-1.25125	0.369521	0.605	0.111103	2.9345e-10	7.98428e+06	-2.42301e+06	4.40712e+06	
23895	0.87278	-1.25357	0.38077	0.612186	0.108922	0.00396641	1.466e+07	-1.31805e+06	6.40711e+06	
23924	0.893922	-1.25155	0.370973	0.624061	0.107854	0.00915617	1.20735e+07	1.15368e+06	-5.59489e+06	
23954	0.908162	-1.27514	0.377318	0.633116	0.10872	0.00496	8.15379e+06	-1.35091e+07	3.63288e+06	
23985	0.932447	-1.2801	0.379443	0.638986	0.0989931	0.00757567	1.39428e+07	-2.84813e+06	1.22006e+06	
24014	0.946595	-1.29004	0.371266	0.647352	0.0972842	0.00830771	8.14528e+06	-5.72322e+06	-4.70726e+06	
24045	0.950799	-1.30445	0.372063	0.652239	0.0938503	0.00548336	2.42633e+06	-8.31675e+06	459587	
24075	0.975065	-1.3235	0.368832	0.653477	0.0896087	0.00571775	1.40437e+07	-1.10252e+07	-1.86942e+06	
24105	0.998594	-1.31477	0.352545	0.656426	0.0872934	0.00532517	1.36634e+07	5.06819e+06	-9.45831e+06	
24135	1.04834	-1.32184	0.359936	0.659705	0.0885098	0.00305518	2.89574e+07	-4.11339e+06	4.3022e+06	
24164	1.04834	-1.32184	0.359936	0.691848	0.0839439	0.00783062	2.89574e+07	-4.11339e+06	4.3022e+06	
24195	1.092	-1.30955	0.359839	0.707485	0.0817227	0.0101538	2.55229e+07	7.18091e+06	-56520.6	
24224	1.09512	-1.31932	0.357046	0.718204	0.0847387	0.0101301	1.82441e+06	-5.72253e+06	-1.63727e+06	
24284	1.13181	-1.32688	0.365685	0.609471	0.111907	1.22362e-10	9.11637e+06	-2.74714e+06	655345	
24314	1.14807	-1.33583	0.36864	0.614941	0.110259	0.000393207	9.59754e+06	-5.27761e+06	1.74417e+06	
24345	1.17724	-1.33654	0.361143	0.621851	0.106459	0.00164901	1.72557e+07	-423743	-4.43441e+06	
24374	1.19304	-1.35061	0.370464	0.624957	0.106383	0.000850816	9.38218e+06	-8.35639e+06	5.53486e+06	
24405	1.2222	-1.36165	0.368003	0.629461	0.102372	0.00350755	1.73458e+07	-6.56352e+06	-1.46396e+06	
24434	1.23701	-1.36989	0.372447	0.640389	0.0982367	0.00258526	8.82362e+06	-4.91042e+06	2.64848e+06	
24464	1.25974	-1.3765	0.36964	0.6433	0.0966162	0.00345926	1.35936e+07	-3.95588e+06	-1.6782e+06	
24495	1.28251	-1.38438	0.368129	0.646155	0.0957855	0.00310684	1.36533e+07	-4.72535e+06	-906230	
24525	1.29439	-1.38332	0.363305	0.65189	0.0938008	0.00272622	7.1393e+06	640492	-2.89848e+06	
24554	1.29439	-1.38332	0.363305	0.661099	0.0946271	-0.00101282	7.1393e+06	640492	-2.89848e+06	
24584	1.29439	-1.38332	0.363305	0.676734	0.0960298	-0.0073605	7.1393e+06	640492	-2.89848e+06	
24615	1.29439	-1.38332	0.363305	0.699009	0.0980281	-0.0164038	7.1393e+06	640492	-2.89848e+06	
24644	1.31514	-1.39693	0.367808	0.70265	0.0983547	-0.017882	1.25849e+07	-8.2534e+06	2.73135e+06	
24704	1.37777	-1.4231	0.375374	0.603144	0.116085	7.55575e-11	8.94954e+06	-6.4123e+06	-383751	
24735	1.39972	-1.42804	0.37056	0.606903	0.113392	-0.000161175	1.34165e+07	-3.02131e+06	-2.94166e+06	
24764	1.41549	-1.43793	0.366206	0.612135	0.112213	-0.00130842	9.65684e+06	-6.06073e+06	-2.66754e+06	
24795	1.41549	-1.43793	0.366206	0.624882	0.104213	-0.00482958	9.65684e+06	-6.06073e+06	-2.66754e+06	
24824	1.46097	-1.46007	0.365713	0.626331	0.103304	-0.00522971	1.37417e+07	-8.05525e+06	911948	
24855	1.47161	-1.47015	0.359839	0.631278	0.100404	-0.00490141	6.56742e+06	-6.22548e+06	-3.62542e+06	
24884	1.48407	-1.48373	0.366685	0.632854	0.09891	-0.00577151	7.71538e+06	-8.40477e+06	4.23665e+06	
24974	1.52299	-1.48901	0.363419	0.537924	0.071618	-9.52889e-11	1.51552e+07	-6.97464e+06	-4.17954e+06	
25005	1.54571	-1.4888	0.359375	0.54929	0.066387	-0.00313466	1.41802e+07	135058	-2.5237e+06	
25034	1.56072	-1.50411	0.359888	0.561201	0.0665005	-0.00525456	9.38537e+06	-9.57446e+06	320485	
25065	1.58722	-1.50539	0.35975	0.569367	0.0581707	-0.00497574	1.66075e+07	-802896	-86395.6	
25094	1.58722	-1.50539	0.35975	0.598264	0.0567737	-0.00512607	1.66075e+07	-802896	-86395.6	
25125	1.58923	-1.51153	0.36333	0.606235	0.0563883	-0.00516754	1.27086e+06	-3.87352e+06	2.25747e+06	
25154	1.59075	-1.51307	0.362946	0.607074	0.0538317	-0.00367761	959654	-967536	-242722	
25185	1.59324	-1.51599	0.361098	0.607275	0.0536286	-0.00372858	825608	-762967	-1.22908e+06	
25215	1.59144	-1.50977	0.361013	0.607573	0.0533539	-0.00417105	-1.14223e+06	3.95343e+06	-54183.3	
25245	1.59428	-1.52315	0.35993	0.607196	0.0546585	-0.00418893	1.80967e+06	-8.52051e+06	-689242	
25274	1.59428	-1.52315	0.35993	0.609367	0.0444339	-0.00501602	1.80967e+06	-8.52051e+06	-689242	
25304	1.60301	-1.54634	0.360814	0.610942	0.0370211	-0.00561566	5.57697e+06	-1.48187e+07	564387	
25335	1.61079	-1.5641	0.361854	0.614288	0.0281299	-0.00527703	4.98204e+06	-1.13811e+07	666354	
25364	1.61159	-1.56566	0.362002	0.618024	0.019594	-0.00477727	514015	-1.00076e+06	95600.4	
25395	1.61349	-1.57107	0.361894	0.618302	0.0190536	-0.00472564	1.22532e+06	-3.48463e+06	-69707.6	
25425	1.61761	-1.58595	0.365791	0.618817	0.0175901	-0.00475492	2.66312e+06	-9.60548e+06	2.51607e+06	
25454	1.62291	-1.59959	0.366387	0.620095	0.0129795	-0.00354721	3.42884e+06	-8.82896e+06	386058	
25485	1.62688	-1.60981	0.366783	0.622564	0.0066226	-0.00326925	2.56977e+06	-6.62268e+06	256605	
25514	1.62688	-1.60981	0.366783	0.62665	-0.00390746	-0.00286124	2.56977e+06	-6.62268e+06	256605	
25545	1.63279	-1.62558	0.367694	0.628037	-0.00748371	-0.00272268	3.85196e+06	-1.02799e+07	593540	
25605	1.63519	-1.63229	0.367876	0.027294	0.619282	-0.0010667	1.57161e+06	-4.38254e+06	119094	
25634	1.77606	-1.59033	0.336412	0.0284727	0.615995	-0.00097738	9.23855e+07	2.7517e+07	-2.0635e+07	
25664	1.81545	-1.5828	0.333288	0.0811325	0.63168	-0.0127393	2.59043e+07	4.95585e+06	-2.05457e+06	
25695	1.82311	-1.58448	0.336308	0.0920123	0.633762	-0.0136022	5.05073e+06	-1.10707e+06	1.99161e+06	
25755	1.82764	-1.58634	0.338157	0.397741	0.0158853	1.66281e-10	3.36071e+06	-1.45426e+06	-587096	
25785	1.8293	-1.58666	0.339039	0.398649	0.0154926	-0.000158516	1.10129e+06	-217065	585390	
25815	1.84173	-1.58726	0.338015	0.39921	0.0153819	0.000140033	8.27435e+06	-395451	-681177	
25844	1.87396	-1.58503	0.331405	0.402685	0.0152158	-0.000146061	2.15024e+07	1.48408e+06	-4.4103e+06	
25875	1.89918	-1.5988	0.328125	0.414297	0.0160172	-0.00252762	1.68633e+07	-9.20203e+06	-2.19254e+06	
25934	1.91007	-1.59787	0.325485	0.350746	-0.0159793	5.89434e-10	7.29876e+06	621963	-1.76999e+06	
25965	1.91149	-1.59967	0.325925	0.356439	-0.0154942	-0.00138059	954723	-1.20851e+06	296596	
25994	1.92341	-1.59835	0.324982	0.357069	-0.0162918	-0.00118484	8.03944e+06	884155	-636606	
26025	1.9624	-1.61622	0.318539	0.358275	-0.0161592	-0.00128033	1.41424e+07	-5.46832e+06	-2.42986e+06	
26084	1.97311	-1.61778	0.313897	0.300221	-0.0196696	2.0766e-10	7.26769e+06	-1.05456e+06	-3.14972e+06	
26115	1.99505	-1.61888	0.322701	0.305889	-0.0204922	-0.00245678	1.49325e+07	-752936	5.99208e+06	
26144	1.99505	-1.61888	0.322701	0.330528	-0.0217345	0.00743015	1.49325e+07	-752936	5.99208e+06	
26205	2.04682	-1.61335	0.304037	0.298438	-0.0388851	2.00685e-10	1.58831e+07	-766177	-3.15514e+06	
26235	2.03185	-1.6014	0.301296	0.305585	-0.0392298	-0.00141982	-1.02905e+07	8.21125e+06	-1.88421e+06	
26265	2.04802	-1.59991	0.30726	0.302189	-0.0365201	-0.00204161	1.11427e+07	1.03352e+06	4.11078e+06	
26295	2.04913	-1.5817	0.298144	0.308206	-0.035962	0.000178214	769615	1.2573e+07	-6.29439e+06	
26324	2.06982	-1.59019	0.292361	0.308299	-0.0344533	-0.000577113	1.43301e+07	-5.88134e+06	-4.00613e+06	
26385	2.08515	-1.56745	0.289364	0.245009	-0.0890243	2.83292e-10	8.43876e+06	5.34814e+06	-1.89172e+06	
26474	2.12884	-1.56573	0.293219	0.232296	-0.0931021	2.45786e-10	5.89013e+06	1.13231e+07	1.6541e+06	
26505	2.14599	-1.55662	0.287976	0.236537	-0.0849495	0.00119095	1.20209e+07	6.38422e+06	-3.67673e+06	
26534	2.14603	-1.54835	0.285568	0.245913	-0.0799698	-0.0016769	35076.7	5.81599e+06	-1.69149e+06	
26565	2.14603	-1.54835	0.285568	0.245973	-0.0700244	-0.00456934	35076.7	5.81599e+06	-1.69149e+06	
26625	2.15857	-1.54896	0.28318	0.177391	-0.144346	6.25902e-10	8.86648e+06	-433668	-1.68922e+06	
26654	2.16673	-1.54039	0.279739	0.182179	-0.14458	-0.00091218	5.78528e+06	6.08248e+06	-2.44092e+06	
26684	2.16847	-1.52462	0.281549	0.184956	-0.14166	-0.00208382	1.24295e+06	1.12147e+07	1.28716e+06	
26744	2.1844	-1.52391	0.274252	0.13188	-0.22627	2.13459e-10	-513308	9.12881e+06	-4.04799e+06	
26774	2.18764	-1.51543	0.277938	0.13168	-0.22271	-0.00157871	2.31745e+06	6.07294e+06	2.63947e+06	
26805	2.19248	-1.50765	0.276221	0.132514	-0.220523	-0.000628504	3.47506e+06	5.58578e+06	-1.2329e+06	
26834	2.20674	-1.49869	0.275875	0.133452	-0.219015	-0.000961386	1.02629e+07	6.44314e+06	-248647	
26864	2.21726	-1.48663	0.2732	0.135915	-0.217469	-0.00102106	7.58819e+06	8.70498e+06	-1.92926e+06	
26895	2.21277	-1.47225	0.269864	0.137736	-0.21538	-0.00148408	-3.24217e+06	1.03892e+07	-2.41202e+06	
26924	2.21846	-1.46033	0.268415	0.137153	-0.21351	-0.00191825	4.11922e+06	8.64325e+06	-1.04981e+06	
26954	2.21846	-1.46033	0.268415	0.141602	-0.204175	-0.00305204	4.11922e+06	8.64325e+06	-1.04981e+06	
26985	2.22245	-1.45212	0.266784	0.144938	-0.197174	-0.00390239	2.90181e+06	5.96153e+06	-1.18529e+06	
27014	2.21953	-1.43728	0.262065	0.147202	-0.192524	-0.00482691	-2.13213e+06	1.08133e+07	-3.43673e+06	
27044	2.22157	-1.42531	0.259897	0.145602	-0.184414	-0.00740446	1.49005e+06	8.73271e+06	-1.58261e+06	
27075	2.22751	-1.41845	0.258629	0.146005	-0.182056	-0.00783177	4.35417e+06	5.03138e+06	-929132	
27104	2.22751	-1.41845	0.258629	0.150968	-0.17632	-0.00889098	4.35417e+06	5.03138e+06	-929132	
27164	2.2336	-1.39316	0.261811	0.052335	-0.331159	8.02526e-10	265108	1.184e+07	678362	
27194	2.24105	-1.37987	0.259606	0.0523827	-0.329027	0.000122106	4.60747e+06	6.43124e+06	-949471	
27225	2.24042	-1.36876	0.257221	0.0543179	-0.326326	-0.000276672	-465333	8.22498e+06	-1.76588e+06	
27255	2.2487	-1.36171	0.255225	0.0540806	-0.322132	-0.00117727	6.14744e+06	5.22619e+06	-1.48089e+06	
27285	2.24623	-1.34635	0.256824	0.0574002	-0.319309	-0.00197695	-1.83951e+06	1.14226e+07	1.18833e+06	
27315	2.25104	-1.33869	0.252602	0.0561309	-0.311428	-0.001157	3.57908e+06	5.70602e+06	-3.14434e+06	
27345	2.25157	-1.32882	0.252499	0.05903	-0.306806	-0.00370392	399081	7.36514e+06	-76452.3	
27374	2.25409	-1.31868	0.249022	0.0592814	-0.302166	-0.00375209	1.88792e+06	7.5886e+06	-2.60148e+06	
27404	2.25445	-1.30306	0.24736	0.0606973	-0.296475	-0.00570319	263753	1.17068e+07	-1.24646e+06	
27435	2.25703	-1.28824	0.246681	0.0608318	-0.290504	-0.00633889	1.93961e+06	1.1142e+07	-510422	
27464	2.26767	-1.2864	0.246226	0.0611228	-0.288833	-0.00641545	8.02532e+06	1.38252e+06	-342663	
27495	2.26644	-1.27259	0.247811	0.0637711	-0.288377	-0.00652853	-925657	1.04319e+07	1.19712e+06	
27525	2.26644	-1.27259	0.247811	0.0626326	-0.275545	-0.00505608	-925657	1.04319e+07	1.19712e+06	
27555	2.25484	-1.24049	0.247369	0.062577	-0.274919	-0.00498425	-8.8062e+06	2.43709e+07	-335556	
27584	2.26619	-1.23267	0.245989	0.0609919	-0.270533	-0.00504465	8.63137e+06	5.94594e+06	-1.04977e+06	
27615	2.25787	-1.20402	0.239524	0.0646171	-0.268035	-0.00548555	-6.3436e+06	2.18264e+07	-4.92464e+06	
27644	2.27437	-1.20284	0.242199	0.0613819	-0.256904	-0.00799712	1.2595e+07	906099	2.04142e+06	
27675	2.28012	-1.20437	0.249938	0.0666718	-0.256523	-0.00713972	4.40006e+06	-1.1712e+06	5.92145e+06	
27705	2.28155	-1.18741	0.253395	0.0677278	-0.256804	-0.00571858	1.09538e+06	1.30098e+07	2.65207e+06	
27734	2.29293	-1.18443	0.247391	0.0677935	-0.256024	-0.00555945	8.75812e+06	2.29270e+06	-4.61766e+06	
27765	2.29718	-1.17995	0.25128	0.0691072	-0.25568	-0.0062521	3.27311e+06	3.45275e+06	2.99693e+06	
27794	2.30601	-1.16929	0.245636	0.0703837	-0.254333	-0.0050833	6.81001e+06	8.22104e+06	-4.35595e+06	
27855	2.31329	-1.16662	0.245109	0.0662884	-0.234862	2.06969e-10	2.26209e+06	4.23745e+06	3.40702e+06	
27884	2.31329	-1.16662	0.245109	0.0687315	-0.230286	0.00367958	2.26209e+06	4.23745e+06	3.40702e+06	
27914	2.31757	-1.166	0.245749	0.0706995	-0.226599	0.00664369	3.32235e+06	487295	497470	
27945	2.32231	-1.15951	0.239287	0.0714969	-0.226482	0.00676308	3.70125e+06	5.0653e+06	-5.04344e+06	
28034	2.32752	-1.14408	0.233543	0.0438624	-0.109211	2.4431e-10	5.67786e+06	262786	-3.11691e+06	
28125	2.3355	-1.12103	0.224067	0.0309278	-0.0729889	6.64173e-11	1.28137e+06	8.56729e+06	-1.00705e+07	
28154	2.32665	-1.1075	0.226848	0.0312354	-0.0709328	-0.00241692	-7.01256e+06	1.07141e+07	2.20301e+06	
28185	2.33261	-1.10245	0.21094	0.029342	-0.06804	-0.0018221	4.73341e+06	4.01357e+06	-1.2629e+07	
28244	2.33465	-1.09021	0.217455	0.0203765	-0.0331786	2.73734e-10	1.09025e+06	7.43715e+06	-3.36996e+06	
28275	2.33465	-1.09021	0.217455	0.0215539	-0.0251465	-0.00363956	1.09025e+06	7.43715e+06	-3.36996e+06	
28305	2.33742	-1.08935	0.217873	0.0223716	-0.0195686	-0.00616703	2.21007e+06	688226	334337	
28334	2.33663	-1.08272	0.213855	0.0240292	-0.0190524	-0.00591628	-633064	5.31036e+06	-3.21952e+06	
28395	2.33681	-1.08672	0.214562	0.0132667	0.00476914	8.67938e-11	915286	-1.32713e+06	-592233	
28454	2.35039	-1.08876	0.215757	-0.000978396	-0.0154496	7.23536e-10	1.09624e+07	-1.65161e+06	964658	
28485	2.34083	-1.08045	0.219381	0.00527019	-0.016391	0.000549856	-7.74994e+06	6.73491e+06	2.937e+06	
28515	2.34056	-1.08519	0.220675	0.000852726	-0.0125521	0.00222394	-211600	-3.84828e+06	1.05029e+06	
28545	2.3416	-1.08444	0.217632	0.000782898	-0.0138221	0.00257054	840924	611623	-2.47732e+06	
28574	2.3457	-1.07999	0.222307	0.00100995	-0.0136569	0.00190166	3.34791e+06	3.63182e+06	3.81448e+06	
28634	2.34464	-1.08521	0.218052	-0.0098747	0.00315892	5.75482e-11	1.39935e+06	1.61945e+06	-1.90037e+06	
28665	2.346	-1.08946	0.217639	-0.00920301	0.00393625	-0.000912178	1.12244e+06	-3.4897e+06	-338609	
28694	2.34647	-1.09171	0.220265	-0.0084622	0.00163305	-0.00113566	382506	-1.85136e+06	2.15828e+06	
28724	2.34203	-1.08723	0.229265	-0.00825565	0.000633313	2.98104e-05	-3.65594e+06	3.69546e+06	7.41669e+06	
28755	2.35033	-1.09593	0.230593	-0.0106686	0.00307232	0.00492483	6.85262e+06	-7.1824e+06	1.09609e+06	
28785	2.35314	-1.09261	0.231014	-0.00902394	0.00134854	0.00518789	2.32036e+06	2.75156e+06	348910	
28814	2.34294	-1.08801	0.226403	-0.008119	0.00242165	0.00532396	-8.45874e+06	3.81298e+06	-3.82489e+06	
28844	2.34481	-1.08613	0.228896	-0.0137018	0.00493822	0.00279953	1.55691e+06	1.56139e+06	2.0711e+06	
28875	2.34985	-1.09317	0.229826	-0.0128143	0.00582821	0.00398006	4.19412e+06	-5.85947e+06	773738	
28905	2.34624	-1.09641	0.228749	-0.0100462	0.00196096	0.00449073	-3.00954e+06	-2.70202e+06	-897923	
28934	2.34624	-1.09641	0.228749	-0.0146508	-0.00217314	0.00311691	-3.00954e+06	-2.70202e+06	-897923	
28964	2.34169	-1.09173	0.226766	-0.0151925	-0.0026595	0.00295528	-132453	785036	1.20067e+06	
28995	2.34169	-1.09173	0.226766	-0.0153395	-0.00178811	0.00428802	-132453	785036	1.20067e+06	
29024	2.3441	-1.09599	0.229875	-0.0153554	-0.00169391	0.0044321	2.02763e+06	-3.59298e+06	2.61811e+06	
29054	2.34002	-1.09616	0.226834	-0.0148688	-0.00255622	0.00506045	-3.44291e+06	-137110	-2.56548e+06	
29085	2.34572	-1.09541	0.221297	-0.0163148	-0.00261381	0.00398295	4.81915e+06	631712	-4.67981e+06	
29115	2.33958	-1.09455	0.228784	-0.0147245	-0.00240535	0.00243861	-5.19992e+06	725129	6.34204e+06	
29144	2.33948	-1.09455	0.227659	-0.0162845	-0.00218781	0.00434122	-88851.9	2845.79	-955355	
29175	2.33571	-1.09105	0.228165	-0.0163351	-0.00218618	0.00379667	-3.20128e+06	2.9751e+06	430304	
29205	2.3347	-1.08913	0.229041	-0.0181599	-0.000490379	0.00404194	-859643	1.63631e+06	746278	
29234	2.33468	-1.08825	0.226886	-0.0187014	0.000540493	0.0045121	-23684.7	749249	-1.83903e+06	
29264	2.33717	-1.09313	0.230002	-0.0187121	0.000877655	0.00368454	2.13099e+06	-4.17776e+06	2.66567e+06	
29295	2.33717	-1.09313	0.230002	-0.0157713	-0.00488765	0.00736316	2.13099e+06	-4.17776e+06	2.66567e+06	
29325	2.32933	-1.09735	0.225282	-0.0153877	-0.00563965	0.00784298	-1.79423e+06	306698	-1.78481e+06	
29384	2.32826	-1.09843	0.227155	-0.00608206	0.00112408	1.64622e-10	1.92255e+06	320158	-929418	
29415	2.3254	-1.0858	0.231998	-0.00567833	0.00119132	-0.000195178	-2.47945e+06	1.09206e+07	4.18845e+06	
29445	2.32281	-1.07789	0.259446	-0.00694285	0.00676082	0.00194093	-2.24184e+06	6.8527e+06	2.37701e+07	
29475	2.32281	-1.07789	0.259446	-0.0101038	0.0164231	0.0354568	-2.24184e+06	6.8527e+06	2.37701e+07	
29504	2.32281	-1.07789	0.259446	-0.0152152	0.0320473	0.0896526	-2.24184e+06	6.8527e+06	2.37701e+07	
29534	2.31837	-1.10055	0.237295	-0.0171656	0.0380091	0.110333	-3.86667e+06	-1.9726e+07	-1.92834e+07	
29565	2.33193	-1.11587	0.243979	-0.0197176	0.02499	0.0976056	1.18388e+07	-1.33666e+07	5.83377e+06	
29595	2.33089	-1.12901	0.228001	-0.011904	0.016168	0.101456	-910448	-1.14955e+07	-1.3974e+07	
29625	2.33315	-1.12888	0.223701	-0.0124503	0.00927068	0.0930715	1.9793e+06	117371	-3.7687e+06	
29654	2.32952	-1.12737	0.231597	-0.0112627	0.0093411	0.0908103	-3.18443e+06	1.32543e+06	6.93395e+06	
29685	2.32324	-1.1294	0.234803	-0.0133644	0.0102159	0.0953867	-5.52532e+06	-1.78856e+06	2.82107e+06	
29715	2.33089	-1.1433	0.238025	-0.0171769	0.00898178	0.0973332	6.74047e+06	-1.22543e+07	2.84036e+06	
29745	2.32506	-1.14431	0.240551	-0.0139415	0.00309973	0.0986966	-5.15221e+06	-889047	2.23297e+06	
29774	2.31962	-1.14395	0.234228	-0.0148689	0.0029397	0.0990985	-4.82027e+06	317979	-5.60348e+06	
29804	2.31962	-1.14395	0.234228	-0.0200748	0.00328311	0.0930468	-4.82027e+06	317979	-5.60348e+06	
29835	2.30456	-1.14048	0.231515	-0.0239792	0.00354068	0.088508	-1.33841e+07	3.08275e+06	-2.41004e+06	
29865	2.31107	-1.14514	0.231255	-0.0352218	0.00613019	0.0864835	5.79595e+06	-4.15018e+06	-232046	
29894	2.29853	-1.15151	0.234067	-0.0305271	0.00276855	0.0862956	-1.11811e+07	-5.67943e+06	2.50861e+06	
29924	2.31186	-1.1684	0.238291	-0.0399192	-0.00200217	0.0884028	1.19135e+07	-1.50955e+07	3.77538e+06	
29955	2.30397	-1.18637	0.24206	-0.0392044	-0.0029079	0.0886293	-4.50086e+06	-7.52661e+06	2.75572e+06	
29985	2.30397	-1.18637	0.24206	-0.0435252	-0.0101335	0.0912748	-4.50086e+06	-7.52661e+06	2.75572e+06	
30015	2.30397	-1.18637	0.24206	-0.0518968	-0.0241329	0.0964004	-4.50086e+06	-7.52661e+06	2.75572e+06	
30044	2.27742	-1.17713	0.242264	-0.0551374	-0.0295521	0.0983846	-2.3925e+07	8.32585e+06	183934	
30074	2.28713	-1.18635	0.240733	-0.0723634	-0.0235575	0.098517	8.76274e+06	-8.3224e+06	-1.38248e+06	
30105	2.27804	-1.19537	0.244127	-0.0657914	-0.0297993	0.0974801	-8.22358e+06	-8.15634e+06	3.07091e+06	
30135	2.28121	-1.21602	0.244944	-0.071959	-0.0359166	0.0997833	2.87602e+06	-1.87258e+07	740831	
30164	2.27149	-1.21757	0.248611	-0.0697157	-0.0505227	0.100361	-8.82429e+06	-1.40879e+06	3.33051e+06	
30194	2.26862	-1.24558	0.251702	-0.0705099	-0.0506495	0.100661	1.4416e+06	-1.13792e+07	4.81327e+06	
30255	2.263	-1.25109	0.247725	-0.0690295	0.291117	5.01988e-10	-5.13413e+06	-5.03716e+06	-3.63286e+06	
30284	2.2559	-1.26195	0.255435	-0.0719559	0.288246	-0.00207073	-6.50018e+06	-9.94647e+06	7.06245e+06	
30314	2.25601	-1.26864	0.252919	-0.075856	0.282278	0.00216674	104273	-6.13623e+06	-2.30923e+06	
30345	2.25148	-1.2788	0.255651	-0.0758091	0.279517	0.00112759	-4.17143e+06	-9.34643e+06	2.51275e+06	
30375	2.2481	-1.29425	0.255691	-0.0776862	0.275311	0.00225833	-3.11592e+06	-1.42416e+07	37620.6	
30404	2.23648	-1.29875	0.256969	-0.0787145	0.270611	0.00227074	-1.07318e+07	-4.16047e+06	1.18043e+06	
30464	2.23252	-1.306	0.255927	-0.0724434	0.335774	2.32489e-10	-3.6693e+06	-6.70552e+06	-964994	
30495	2.23477	-1.31472	0.256728	-0.0745349	0.331952	-0.000550046	2.09624e+06	-8.10306e+06	743532	
30525	2.22931	-1.32727	0.259251	-0.07334	0.327333	-0.000126233	-5.08703e+06	-1.16793e+07	2.34864e+06	
30555	2.22492	-1.34412	0.26432	-0.0759344	0.321376	0.00107157	-4.08918e+06	-1.57156e+07	4.72674e+06	
30585	2.21978	-1.35289	0.260189	-0.0782653	0.312419	0.00376581	-4.80878e+06	-8.19058e+06	-3.85944e+06	
30614	2.21313	-1.36266	0.259742	-0.0810063	0.30775	0.00156593	-6.22303e+06	-9.1452e+06	-418710	
30644	2.21036	-1.3826	0.264417	-0.08418	0.303086	0.00135239	-2.59178e+06	-1.87044e+07	4.38548e+06	
30675	2.20349	-1.38785	0.263192	-0.0852686	0.29523	0.00319429	-6.46284e+06	-4.9367e+06	-1.15117e+06	
30705	2.20221	-1.39905	0.265235	-0.0881768	0.293009	0.00267626	-1.2021e+06	-1.05444e+07	1.92359e+06	
30735	2.18979	-1.42336	0.269941	-0.0887178	0.288264	0.00354188	-1.17276e+07	-2.29459e+07	4.44144e+06	
30765	2.18828	-1.43401	0.268433	-0.0939952	0.277938	0.00554053	-1.42397e+06	-1.00725e+07	-1.42604e+06	
30855	2.1583	-1.43669	0.263965	-0.0819976	0.357334	2.70061e-10	-2.17605e+07	8.36315e+06	-6.87794e+06	
30885	2.15628	-1.44794	0.257024	-0.100276	0.364359	-0.00577747	-1.92782e+06	-1.07085e+07	-6.60856e+06	
30914	2.16596	-1.47484	0.268444	-0.101954	0.355043	-0.0115269	9.23055e+06	-2.56656e+07	1.08932e+07	
30944	2.16482	-1.47512	0.2671	-0.0975229	0.342724	-0.00629816	-1.09058e+06	-268680	-1.28529e+06	
30975	2.16482	-1.47512	0.2671	-0.0990606	0.342345	-0.00811043	-1.09058e+06	-268680	-1.28529e+06	
31005	2.16355	-1.48557	0.269052	-0.0999113	0.342135	-0.00911296	-1.22002e+06	-1.00262e+07	1.8736e+06	
31034	2.15417	-1.48566	0.266658	-0.100826	0.334616	-0.00770775	-9.01986e+06	-80955.1	-2.30243e+06	
31064	2.14534	-1.48551	0.266984	-0.107321	0.334557	-0.0093655	-8.5006e+06	141775	314014	
31095	2.15666	-1.51017	0.271041	-0.113441	0.334659	-0.00913941	1.09222e+07	-2.38087e+07	3.91666e+06	
31125	2.14658	-1.50976	0.277299	-0.105577	0.317517	-0.00631942	-9.74513e+06	400244	6.05308e+06	
31155	2.13551	-1.51502	0.270093	-0.112886	0.317817	-0.00177961	-1.0724e+07	-5.10368e+06	-6.98257e+06	
31184	2.14116	-1.52826	0.267708	-0.120607	0.314143	-0.00680706	5.48056e+06	-1.28523e+07	-2.31602e+06	
31215	2.13766	-1.53621	0.267219	-0.116497	0.304503	-0.00854408	-3.40205e+06	-7.73575e+06	-475517	
31244	2.12945	-1.5428	0.264439	-0.118946	0.298934	-0.00888645	-8.00127e+06	-6.42332e+06	-2.7095e+06	
31275	2.12601	-1.54715	0.265474	-0.119666	0.298356	-0.00913031	-3.36331e+06	-4.24932e+06	1.01171e+06	
31394	2.11449	-1.56428	0.280283	-0.0336387	0.0670758	3.71227e-11	-4.14634e+06	-1.01545e+07	412725	
31454	2.11916	-1.55893	0.278686	-0.0300989	0.0444882	1.15874e-10	4.61996e+06	5.27797e+06	-1.57686e+06	
31485	2.11916	-1.55893	0.278686	-0.0216444	0.0541469	-0.00288565	4.61996e+06	5.27797e+06	-1.57686e+06	
31514	2.11762	-1.56242	0.277243	-0.0179022	0.058422	-0.0041629	-1.52628e+06	-3.45912e+06	-1.43079e+06	
31544	2.1186	-1.5698	0.281043	-0.0191385	0.0556201	-0.00532184	970248	-7.32533e+06	3.7743e+06	
31575	2.11322	-1.5807	0.279864	-0.0183235	0.0494668	-0.00215143	-5.35932e+06	-1.08541e+07	-1.1736e+06	
31605	2.11703	-1.58917	0.271369	-0.0192881	0.0475131	-0.00236267	206629	-450454	-1.92192e+06	
31635	2.11245	-1.59157	0.270952	-0.0192448	0.0474185	-0.00276628	-4.5743e+06	-2.40007e+06	-416439	
31725	2.11257	-1.5993	0.279598	-0.00876163	0.0132529	2.82564e-10	-471129	-8.82927e+06	898593	
31754	2.11803	-1.595	0.275291	-0.00915738	0.00583634	0.000754818	5.49849e+06	4.33216e+06	-4.33502e+06	
31785	2.10942	-1.60135	0.279976	-0.00453865	0.00947535	-0.0028866	-8.68501e+06	-6.40415e+06	4.7248e+06	
31815	2.11045	-1.60191	0.282276	-0.0115735	0.00428799	0.000940494	1.03688e+06	-564648	2.32397e+06	
31844	2.1091	-1.60421	0.281669	-0.010827	0.00388144	0.00261376	-1.36109e+06	-2.33443e+06	-614349	
31874	2.10949	-1.59762	0.281954	-0.0117661	0.00227069	0.00218985	399467	6.69268e+06	289585	
31905	2.11052	-1.60356	0.277492	-0.0114905	0.00688864	0.00238967	1.04321e+06	-6.04647e+06	-4.5358e+06	
31935	2.10721	-1.60443	0.283234	-0.010802	0.00289797	-0.000603958	-3.37532e+06	-886085	5.84724e+06	
31965	2.10822	-1.60969	0.280092	-0.0118146	0.00263214	0.00115021	1.03677e+06	-5.37102e+06	-3.20768e+06	
32024	2.10583	-1.60709	0.276808	0.000895696	0.00714562	1.94893e-10	-1.44692e+06	-2.11062e+06	586703	
32055	2.1051	-1.60827	0.278162	0.000591842	0.00670239	0.000123208	-754708	-1.21232e+06	1.38987e+06	
32085	2.10211	-1.61514	0.278619	0.000433353	0.00644781	0.000415081	-3.07068e+06	-7.06768e+06	470971	
32114	2.09852	-1.62001	0.284746	6.48715e-05	0.00559969	0.000471598	-3.70519e+06	-5.02149e+06	6.31676e+06	
32204	2.09965	-1.61768	0.284723	-0.000209291	0.0112857	2.88402e-10	-1.0975e+06	-2.77557e+06	1.5692e+06	
32235	2.09839	-1.61824	0.283792	-0.00116412	0.00887091	0.0013652	-1.30718e+06	-585971	-965582	
32294	2.08331	-1.6043	0.292671	0.000998437	-0.00107535	2.04859e-11	-5.08275e+06	6.02066e+06	6.06382e+06	
32325	2.09025	-1.60729	0.293581	0.000236024	-0.000172247	0.000909573	7.25255e+06	-3.12905e+06	950127	
32355	2.09025	-1.60729	0.293581	0.0078512	-0.00345775	0.00190721	7.25255e+06	-3.12905e+06	950127	
32384	2.08937	-1.60778	0.288209	0.0128555	-0.0056168	0.00256279	-917770	-506187	-5.62582e+06	
32414	2.09236	-1.60801	0.288634	0.0122497	-0.00595088	-0.00115025	3.13656e+06	-240387	445644	
32445	2.09236	-1.60801	0.288634	0.0172369	-0.0063331	-0.000441676	3.13656e+06	-240387	445644	
32474	2.08342	-1.60769	0.2896	0.018366	-0.00641964	-0.000281244	-9.41997e+06	333680	1.01789e+06	
32505	2.09022	-1.60902	0.290028	0.01554	-0.00631953	2.41242e-05	7.1739e+06	-1.40107e+06	452610	
32535	2.08246	-1.60301	0.285008	0.0176922	-0.00673985	0.000159907	-8.20198e+06	6.35765e+06	-5.31030e+06	
32564	2.08406	-1.60104	0.288483	0.0157237	-0.00521402	-0.00111457	1.68913e+06	2.0895e+06	3.6831e+06	
32594	2.08406	-1.60104	0.288483	0.0176493	-0.00283199	0.00308417	1.68913e+06	2.0895e+06	3.6831e+06	
32625	2.09147	-1.61048	0.291362	0.0190682	-0.00107681	0.00617797	7.87437e+06	-1.0034e+07	3.05907e+06	
32655	2.0849	-1.61028	0.291536	0.0252102	-0.00890337	0.00856405	-6.98952e+06	215758	184549	
32684	2.08286	-1.59866	0.286848	0.0201777	-0.00874802	0.00869692	-2.18055e+06	1.23943e+07	-4.99983e+06	
32714	2.092	-1.61349	0.293926	0.0186078	0.000175866	0.00509705	9.77291e+06	-1.5855e+07	7.56336e+06	
32744	2.08044	-1.60752	0.288706	0.0250579	-0.0102885	0.0100889	-1.2378e+07	6.39541e+06	-5.58885e+06	
32805	2.07897	-1.61045	0.287172	0.0141078	-0.0176591	2.9976e-10	-1.5831e+06	-3.14659e+06	-1.64745e+06	
32925	2.08859	-1.60014	0.287064	0.0312647	-0.040406	1.11896e-10	4.99048e+06	4.09538e+06	-333064	
32955	2.08859	-1.60014	0.287064	0.036355	-0.0362287	-0.000339725	4.99048e+06	4.09538e+06	-333064	
32985	2.09142	-1.59766	0.286049	0.0397984	-0.0334029	-0.000569539	3.0759e+06	2.69584e+06	-1.10277e+06	
33014	2.08922	-1.59981	0.286226	0.0423822	-0.0311384	-0.00149586	-2.39556e+06	-2.34246e+06	193322	
33045	2.08991	-1.60064	0.287483	0.0404418	-0.0330358	-0.00133927	745243	-896525	1.36936e+06	
33075	2.08651	-1.60119	0.293666	0.0408666	-0.0335468	-0.000558739	-3.71342e+06	-604284	6.75713e+06	
33104	2.09417	-1.59815	0.287666	0.0395297	-0.0337644	0.00187383	8.39172e+06	3.32377e+06	-6.57076e+06	
33134	2.09302	-1.59864	0.287347	0.042299	-0.0326675	-0.000294524	-1.25802e+06	-529898	-350344	
33165	2.09945	-1.59079	0.287283	0.0419216	-0.0328265	-0.000399627	7.06743e+06	8.62436e+06	-70485.9	
33195	2.10511	-1.58542	0.28703	0.0438298	-0.0304979	-0.000418658	6.23077e+06	5.91753e+06	-278317	
33225	2.10877	-1.58063	0.287403	0.0451383	-0.0292552	-0.000477105	4.04234e+06	5.27915e+06	412013	
33284	2.11338	-1.57173	0.284167	0.114056	-0.0528326	1.09783e-10	1.60294e+06	5.02915e+06	-2.6767e+06	
33345	2.12276	-1.56161	0.28425	0.134613	-0.0626867	1.21449e-10	5.70811e+06	3.70278e+06	-2225.85	
33435	2.12328	-1.55594	0.284387	0.151158	-0.0532832	6.31272e-10	580800	6.31962e+06	152849	
33465	2.12021	-1.5415	0.276207	0.151611	-0.0483539	0.000119223	-3.43508e+06	1.61386e+07	-9.1467e+06	
33495	2.13852	-1.54776	0.2817	0.149138	-0.0367341	-0.0064664	2.05091e+07	-7.00486e+06	6.15308e+06	
33525	2.14089	-1.54349	0.280551	0.163289	-0.0415675	-0.00222078	2.6687e+06	4.78437e+06	-1.28888e+06	
33554	2.14298	-1.5437	0.278505	0.165131	-0.0382663	-0.00311011	2.34302e+06	-231726	-2.30103e+06	
33585	2.14852	-1.52862	0.277046	0.166818	-0.0384331	-0.00476685	6.24672e+06	1.69863e+07	-1.64279e+06	
33615	2.17021	-1.5408	0.26565	0.171315	-0.026203	-0.00594966	2.44693e+07	-1.37398e+07	-1.28591e+07	
33645	2.1673	-1.53751	0.262233	0.188933	-0.0360956	-0.0152082	-3.28708e+06	3.71049e+06	-3.86272e+06	
33674	2.17525	-1.53407	0.258778	0.186665	-0.0335354	-0.0178735	8.99443e+06	3.90093e+06	-3.91203e+06	
33704	2.18822	-1.53832	0.258075	0.193411	-0.0306097	-0.0208075	1.47109e+07	-4.82024e+06	-797247	
33735	2.1785	-1.51744	0.255099	0.204886	-0.0343695	-0.0214293	-1.10425e+07	2.37251e+07	-3.38132e+06	
33765	2.19212	-1.52941	0.249773	0.197266	-0.0179992	-0.0237624	1.55069e+07	-1.36335e+07	-6.06390e+06	
33794	2.19734	-1.52204	0.252467	0.206105	-0.0257703	-0.0272189	5.95649e+06	8.41352e+06	3.07251e+06	
33825	2.2036	-1.51442	0.254371	0.209322	-0.021227	-0.0255597	7.15695e+06	8.70813e+06	2.17639e+06	
33855	2.21056	-1.50749	0.251355	0.212972	-0.0167858	-0.0244498	7.96667e+06	7.93638e+06	-3.45388e+06	
33914	2.2156	-1.50522	0.253917	0.0170666	0.235156	-0.0340861	5.78731e+06	2.60556e+06	2.93911e+06	
33944	2.21981	-1.49746	0.249272	0.0186292	0.235859	-0.0332925	4.84168e+06	8.93497e+06	-5.34967e+06	
34005	2.22621	-1.4913	0.251552	0.344149	0.0038446	2.4026e-10	7.38518e+06	7.1058e+06	2.63059e+06	
34034	2.26331	-1.51231	0.239934	0.349245	0.00874761	0.0018151	4.29149e+07	-2.43063e+07	-1.34389e+07	
34064	2.27612	-1.52707	0.242745	0.376281	-0.00656535	-0.00665139	1.48495e+07	-1.71002e+07	3.25824e+06	
34095	2.29679	-1.53158	0.245573	0.386082	-0.0178515	-0.00450095	2.39955e+07	-5.24389e+06	3.28299e+06	
34125	2.32305	-1.54147	0.246716	0.401919	-0.0213125	-0.00233418	3.05344e+07	-1.15012e+07	1.32896e+06	
34155	2.323	-1.53435	0.253231	0.422072	-0.0289033	-0.00145706	-50346.2	8.29671e+06	7.5904e+06	
34184	2.34763	-1.5497	0.250739	0.42204	-0.0236763	0.00332489	2.8745e+07	-1.79191e+07	-2.90832e+06	
34214	2.35591	-1.55292	0.254936	0.440149	-0.0349654	0.00149265	9.6761e+06	-3.76454e+06	4.90719e+06	
34245	2.37052	-1.54927	0.249773	0.446826	-0.0375629	0.00487861	1.71081e+07	4.28422e+06	-6.04626e+06	
34305	2.39578	-1.54587	0.247752	0.37537	0.024376	3.0707e-10	1.21839e+07	6.74313e+06	-5.40112e+06	
34365	2.38956	-1.52912	0.243903	0.38334	0.0191436	7.28991e-10	-7.3325e+06	1.97442e+07	-4.53639e+06	
34395	2.40644	-1.53968	0.246089	0.37806	0.0333595	-0.0032662	1.99415e+07	-1.24802e+07	2.58271e+06	
34424	2.40644	-1.53968	0.246089	0.409767	0.013516	0.000840311	1.99415e+07	-1.24802e+07	2.58271e+06	
34455	2.47099	-1.56983	0.243696	0.410964	0.0127672	0.000995274	2.03969e+07	-5.5511e+06	-2.8183e+06	
34515	2.47857	-1.55971	0.23211	0.391706	0.0438548	3.16236e-10	2.2426e+06	7.12529e+06	-2.66445e+06	
34544	2.47993	-1.54608	0.231844	0.39285	0.0474887	-0.00135887	1.62606e+06	1.62567e+07	-316364	
34575	2.48344	-1.53947	0.23121	0.393582	0.0548042	-0.00150123	4.19273e+06	7.89368e+06	-758272	
34605	2.48686	-1.53505	0.231756	0.39572	0.05883	-0.00188795	4.09457e+06	5.28539e+06	654017	
34635	2.53996	-1.57571	0.240706	0.396948	0.0604156	-0.00169174	6.36559e+07	-4.87516e+07	1.07297e+07	
34664	2.55086	-1.57183	0.240141	0.419864	0.042865	0.00217094	1.3085e+07	4.66575e+06	-678107	
34725	2.56638	-1.57784	0.229359	-0.0310792	0.44265	0.000401086	1.86712e+07	-7.23274e+06	-1.29676e+07	
34755	2.57635	-1.58187	0.228917	-0.0148352	0.436358	-0.0108808	1.20163e+07	-4.85956e+06	-533293	
34784	2.56845	-1.56873	0.217131	-0.00438106	0.43213	-0.0113447	-9.53938e+06	1.58706e+07	-1.42368e+07	
34814	2.57973	-1.57114	0.217192	-0.010677	0.442605	-0.020741	1.36522e+07	-2.91488e+06	74856.1	
34875	2.5948	-1.56307	0.210905	0.354816	0.0709732	1.90416e-10	208017	1.86836e+07	-1.36713e+07	
34904	2.62446	-1.58624	0.221951	0.35491	0.0793808	-0.00615207	3.61052e+07	-2.82006e+07	1.34452e+07	
34934	2.63084	-1.58793	0.224027	0.364658	0.0717666	-0.00252186	7.77605e+06	-2.06409e+06	2.53206e+06	
34965	2.65644	-1.59016	0.223328	0.368857	0.070652	-0.00115455	3.12722e+07	-2.71251e+06	-853774	
34995	2.67339	-1.60587	0.222783	0.385744	0.0691873	-0.00161559	2.07379e+07	-1.92267e+07	-665962	
35024	2.67974	-1.60721	0.227942	0.40192	0.0541905	-0.00213504	7.77551e+06	-1.64449e+06	6.31916e+06	
35055	2.68449	-1.60668	0.218785	0.405419	0.0534505	0.000708579	5.83129e+06	651097	-1.12435e+07	
35145	2.70695	-1.60846	0.215933	0.261472	0.0887194	3.46537e-10	8.26852e+06	-5.39707e+06	-943236	
35175	2.72612	-1.62825	0.217702	0.267425	0.0848335	-0.00067913	2.36877e+07	-2.44522e+07	2.18611e+06	
35204	2.7293	-1.61872	0.212795	0.278795	0.0730965	0.000370203	3.94035e+06	1.17901e+07	-6.07643e+06	
35235	2.74317	-1.62711	0.210593	0.280568	0.078402	-0.00236419	1.71967e+07	-1.04086e+07	-2.73062e+06	
35264	2.75431	-1.64142	0.21248	0.29037	0.0724691	-0.00392065	1.38397e+07	-1.7775e+07	2.34347e+06	
35294	2.75116	-1.62876	0.20857	0.295353	0.0660701	-0.003077	-3.9234e+06	1.57632e+07	-4.8673e+06	
35325	2.77983	-1.65054	0.219155	0.293352	0.0741093	-0.00555932	3.57449e+07	-2.71513e+07	1.31967e+07	
35355	2.77983	-1.65054	0.219155	0.343752	0.0358259	0.013048	3.57449e+07	-2.71513e+07	1.31967e+07	
35385	2.77633	-1.64246	0.205109	0.358765	0.0244223	0.0185906	-4.37853e+06	1.0111e+07	-1.75738e+07	
35414	2.7891	-1.65443	0.210251	0.356269	0.0301856	0.00857352	1.6002e+07	-1.50028e+07	6.44286e+06	
35444	2.80584	-1.67317	0.215331	0.36683	0.0202838	0.0128258	2.10035e+07	-2.35151e+07	6.37311e+06	
35475	2.81413	-1.68143	0.215839	0.379432	0.00617471	0.0166497	1.04159e+07	-1.03722e+07	639304	
35595	2.82056	-1.67414	0.217007	0.103768	0.0638793	2.43121e-10	-2.00002e+06	2.83325e+06	-14723.4	
35625	2.82429	-1.68081	0.221983	0.103468	0.0643043	-2.20826e-06	4.72754e+06	-8.46485e+06	6.31345e+06	
35654	2.82604	-1.67966	0.217772	0.10517	0.0612569	0.00227064	2.22472e+06	1.45593e+06	-5.34889e+06	
35684	2.82775	-1.68144	0.222179	0.106371	0.0620431	-0.000617765	2.17227e+06	-2.2552e+06	5.60488e+06	
35715	2.83035	-1.68273	0.220149	0.107805	0.0605547	0.00308146	3.32005e+06	-1.64733e+06	-2.58579e+06	
35745	2.83098	-1.68342	0.220957	0.109399	0.059764	0.00184028	806781	-882394	1.03112e+06	
35774	2.827	-1.67956	0.217273	0.109689	0.0594463	0.00221148	-5.09118e+06	4.93182e+06	-4.7115e+06	
35804	2.827	-1.67956	0.217273	0.103274	0.0656604	-0.003725	-5.09118e+06	4.93182e+06	-4.7115e+06	
35835	2.83264	-1.68849	0.222619	0.0991504	0.0696552	-0.00754131	7.23275e+06	-1.14448e+07	6.85471e+06	
35865	2.83264	-1.68849	0.222619	0.111518	0.0500846	0.00418024	7.23275e+06	-1.14448e+07	6.85471e+06	
35895	2.83264	-1.68849	0.222619	0.130396	0.0202138	0.022071	7.23275e+06	-1.14448e+07	6.85471e+06	
35924	2.83264	-1.68849	0.222619	0.155566	-0.019614	0.0459254	7.23275e+06	-1.14448e+07	6.85471e+06	
35955	2.83264	-1.68849	0.222619	0.187462	-0.0700854	0.0761547	7.23275e+06	-1.14448e+07	6.85471e+06	
35984	2.83237	-1.69704	0.221109	0.19267	-0.0783257	0.0810901	-359608	-1.10619e+07	-1.95195e+06	
36014	2.83237	-1.69704	0.221109	0.192087	-0.0962459	0.0779279	-359608	-1.10619e+07	-1.95195e+06	
36045	2.83237	-1.69704	0.221109	0.19117	-0.124454	0.0729505	-359608	-1.10619e+07	-1.95195e+06	
36075	2.83833	-1.70138	0.221717	0.191052	-0.128104	0.0723063	7.7508e+06	-5.64001e+06	790760	
36105	2.83803	-1.7087	0.223851	0.195237	-0.13115	0.0727333	-381558	-9.53361e+06	2.77939e+06	
36134	2.84263	-1.71482	0.226765	0.194974	-0.137728	0.0746511	5.99889e+06	-7.98403e+06	3.79919e+06	
36195	2.83927	-1.70945	0.226049	-0.041256	0.00678552	1.53982e-10	9.92623e+06	-8.35517e+06	6.32554e+06	
36224	2.83843	-1.71709	0.225021	-0.0385759	0.00452963	0.00170789	-1.11177e+06	-1.00235e+07	-1.3472e+06	
36285	2.83421	-1.71293	0.227404	-0.0513688	0.00810759	2.24005e-10	-2.04844e+06	5.42798e+06	-1.17178e+06	
36314	2.82797	-1.71995	0.229497	-0.0516147	0.00875895	-0.000140613	2.16032e+06	-1.48459e+07	1.24322e+06	
36344	2.82677	-1.72044	0.228763	-0.0509018	0.00385979	0.000269649	-1.57637e+06	-652334	-968696	
36375	2.82098	-1.71907	0.228253	-0.051753	0.00350753	-0.000253447	-7.66108e+06	1.81088e+06	-674339	
36405	2.82263	-1.72016	0.230061	-0.0563496	0.00459406	-0.000658051	2.1944e+06	-1.43589e+06	2.39362e+06	
36465	2.81965	-1.72484	0.232618	-0.0579472	-0.00250162	2.60065e-10	2.78912e+06	-1.434e+06	2.03624e+06	
36524	2.81625	-1.72408	0.23019	-0.0505913	0.0027703	2.81307e-10	-4.81994e+06	5.441e+06	-3.35955e+06	
36555	2.81458	-1.72568	0.230419	-0.0547846	0.00750397	-0.00292281	-2.22511e+06	-2.14087e+06	305940	
36585	2.80938	-1.72901	0.233407	-0.0551184	0.00718284	-0.00287691	-3.28673e+06	3.44175e+06	-69164.1	
36614	2.81134	-1.73304	0.235746	-0.05571	0.00780236	-0.00288936	2.62003e+06	-5.40256e+06	3.13509e+06	
36675	2.80263	-1.72487	0.234308	-0.0437368	-0.019387	6.6149e-11	-9.36499e+06	1.16575e+07	-653314	
36704	2.80263	-1.72487	0.234308	-0.0532891	-0.00749634	-0.00066638	-9.36499e+06	1.16575e+07	-653314	
36764	2.80578	-1.72735	0.234691	-0.0342145	-0.0169527	5.29025e-10	4.24533e+06	-3.35429e+06	516230	
36794	2.80321	-1.72823	0.241232	-0.0338324	-0.0172546	4.64612e-05	555932	-4.1439e+06	8.17041e+06	
36825	2.79816	-1.72725	0.236817	-0.0336323	-0.0187464	0.00298781	-6.84274e+06	1.32675e+06	-5.98257e+06	
36855	2.79816	-1.72725	0.236817	-0.0422541	-0.0170747	-0.00455023	-6.84274e+06	1.32675e+06	-5.98257e+06	
36884	2.79816	-1.72725	0.236817	-0.0568292	-0.0142487	-0.0172931	-6.84274e+06	1.32675e+06	-5.98257e+06	
36915	2.79743	-1.72352	0.23644	-0.0623718	-0.0131741	-0.022139	-991768	5.07822e+06	-512771	
36944	2.80328	-1.73476	0.241127	-0.0631156	-0.00936539	-0.0225236	7.9711e+06	-1.53212e+07	6.38853e+06	
36974	2.79505	-1.72163	0.238654	-0.0568982	-0.0213159	-0.0175405	-1.12326e+07	1.79257e+07	-3.37585e+06	
37005	2.79412	-1.7195	0.238055	-0.0609419	-0.0148627	-0.0187558	-1.26838e+06	2.91146e+06	-820140	
37035	2.79809	-1.72315	0.24092	-0.0615126	-0.0135525	-0.0191249	5.43474e+06	-4.9921e+06	3.92576e+06	
37064	2.79878	-1.72076	0.244352	-0.0582518	-0.0165478	-0.0167694	951865	3.2799e+06	4.71032e+06	
37095	2.79554	-1.72228	0.240745	-0.058109	-0.0160558	-0.0160629	8.25702e+06	-8.23191e+06	509113	
37125	2.78647	-1.70856	0.233148	-0.0553842	-0.0187723	-0.0158949	-1.24937e+07	1.88959e+07	-1.04638e+07	
37154	2.78414	-1.70633	0.239336	-0.0576331	-0.0153711	-0.0177784	-3.21634e+06	3.08268e+06	8.53887e+06	
37184	2.78361	-1.70559	0.237115	-0.0588874	-0.0141688	-0.0144482	-724464	1.01065e+06	-3.06903e+06	
37215	2.78824	-1.71266	0.240662	-0.0591482	-0.013805	-0.015553	6.39684e+06	-9.77946e+06	4.91026e+06	
37275	2.79218	-1.7161	0.244453	-0.00621956	-0.0362602	1.03747e-10	8.77162e+06	-1.52128e+07	7.64226e+06	
37334	2.78584	-1.70854	0.237853	-0.00161006	-0.0400711	1.08307e-10	-8.81906e+06	1.05227e+07	-9.1819e+06	
37394	2.79003	-1.70762	0.243349	-0.0112946	-0.0504433	1.89204e-10	872180	1.70662e+06	8393.86	
37424	2.78375	-1.69841	0.238324	-0.0108237	-0.0495217	4.53287e-06	-8.78612e+06	1.28849e+07	-7.03086e+06	
37455	2.78112	-1.69444	0.237469	-0.0131959	-0.0460428	-0.0018938	-3.68656e+06	5.56628e+06	-1.19833e+06	
37485	2.78386	-1.69502	0.234583	-0.0149655	-0.0433709	-0.002469	3.84747e+06	-804117	-4.05131e+06	
37514	2.78207	-1.68885	0.234441	-0.0128878	-0.0438052	-0.00465671	-2.51403e+06	8.66792e+06	-199617	
37545	2.77805	-1.69012	0.234137	-0.0143208	-0.0388644	-0.00477049	-5.66406e+06	-1.78258e+06	-428595	
37575	2.79108	-1.70286	0.235644	-0.0166997	-0.0396131	-0.0049505	1.83765e+07	-1.79723e+07	2.12605e+06	
37604	2.78729	-1.69767	0.232037	-0.00953291	-0.0466223	-0.00412134	-5.3439e+06	7.32427e+06	-5.09727e+06	
37634	2.77896	-1.6763	0.231177	-0.0127392	-0.0422278	-0.0071797	-1.17898e+07	3.0245e+07	-1.21698e+06	
37665	2.77967	-1.6788	0.22751	-0.0145077	-0.037691	-0.00736225	1.00333e+06	-3.5513e+06	-5.2007e+06	
37695	2.77967	-1.6788	0.22751	-0.0134542	-0.0414199	-0.012823	1.00333e+06	-3.5513e+06	-5.2007e+06	
37725	2.78699	-1.66624	0.220012	-0.0126716	-0.0441899	-0.0168795	1.04097e+07	1.78544e+07	-1.06563e+07	
37755	2.78705	-1.66623	0.220123	-0.00455208	-0.0302634	-0.0251914	84580.7	12461.7	158721	
37784	2.78696	-1.66659	0.220227	-0.00448611	-0.0302537	-0.0250676	-138087	-522605	148509	
37815	2.78863	-1.66298	0.21978	-0.00455239	-0.0305046	-0.0249963	2.38664e+06	5.16874e+06	-639340	
37845	2.78863	-1.66298	0.21978	-0.00125883	-0.0233717	-0.0258786	2.38664e+06	5.16874e+06	-639340	
37875	2.79041	-1.65829	0.218917	0.000387949	-0.0198053	-0.0263198	2.55212e+06	6.72071e+06	-1.236e+06	
37934	2.76345	-1.61374	0.212271	-0.0602275	-0.181485	1.04374e-10	-4.33242e+07	5.46209e+07	-7.99588e+06	
37965	2.75987	-1.60283	0.206964	-0.0784236	-0.158544	-0.00335827	-5.15486e+06	1.57157e+07	-7.6446e+06	
37995	2.76113	-1.59263	0.208951	-0.0812073	-0.150058	-0.00748635	1.81386e+06	1.47137e+07	2.86582e+06	
38024	2.76267	-1.58692	0.208102	-0.0800645	-0.140788	-0.00568089	2.22066e+06	8.24188e+06	-1.22634e+06	
38085	2.76354	-1.58369	0.20747	-0.052985	-0.269747	2.26604e-10	1.25978e+06	4.68419e+06	-914865	
38115	2.76311	-1.57983	0.20676	-0.051889	-0.265671	-0.000795932	-626558	5.59282e+06	-1.02954e+06	
38144	2.76529	-1.57186	0.205688	-0.0522837	-0.262148	-0.00144454	3.17786e+06	1.15896e+07	-1.55831e+06	
38174	2.76659	-1.56465	0.204921	-0.049519	-0.252065	-0.00280027	1.88984e+06	1.04848e+07	-1.11604e+06	
38205	2.76659	-1.56465	0.204921	-0.0461173	-0.233192	-0.00480914	1.88984e+06	1.04848e+07	-1.11604e+06	
38235	2.7663	-1.56552	0.204847	-0.0450401	-0.227216	-0.00544528	-421922	-1.27202e+06	-107589	
38294	2.76097	-1.52391	0.198585	-0.0532938	-0.307089	2.63885e-10	-1.32703e+07	4.29683e+07	-3.26591e+06	
38325	2.76097	-1.52391	0.198585	-0.0688201	-0.256816	-0.00382112	-1.32703e+07	4.29683e+07	-3.26591e+06	
38385	2.7502	-1.5011	0.196238	-0.0533258	-0.347161	5.30931e-10	-1.58383e+07	3.35447e+07	-3.45152e+06	
38414	2.75156	-1.49128	0.196433	-0.0557015	-0.342129	-0.000517728	2.01694e+06	1.44822e+07	287221	
38445	2.74801	-1.46177	0.193076	-0.0549754	-0.336916	-0.000414328	-5.24894e+06	4.35822e+07	-4.9582e+06	
38475	2.74459	-1.45211	0.188459	-0.0578098	-0.313381	-0.00309175	-5.06377e+06	1.42899e+07	-6.82902e+06	
38505	2.74202	-1.43308	0.184964	-0.0611519	-0.30395	-0.00759891	-3.79482e+06	2.81871e+07	-5.17558e+06	
38564	2.75352	-1.42382	0.184702	-0.0283813	-0.384166	2.90858e-10	4.49523e+06	7.47218e+06	-2.12682e+06	
38595	2.75293	-1.41202	0.186307	-0.025819	-0.379907	-0.00121229	-888090	1.7556e+07	2.38896e+06	
38625	2.75431	-1.40348	0.183738	-0.0265117	-0.366213	0.000651102	2.05748e+06	1.27373e+07	-3.82719e+06	
38655	2.75828	-1.38463	0.183508	-0.0262648	-0.364685	0.000191839	5.9378e+06	2.81601e+07	-343930	
38714	2.75751	-1.3674	0.180149	-0.00820327	-0.417197	2.5523e-10	-1.15649e+06	2.57637e+07	-5.02532e+06	
38745	2.76038	-1.35775	0.178849	-0.00879308	-0.404057	-0.00256292	4.30398e+06	1.44772e+07	-1.94843e+06	
38775	2.75995	-1.34371	0.178215	-0.00608158	-0.394937	-0.00379043	-644254	2.10854e+07	-952708	
38805	2.74883	-1.31766	0.173317	-0.00658409	-0.37849	-0.00453354	-1.67204e+07	3.91686e+07	-7.36654e+06	
38864	2.76109	-1.29603	0.168369	0.0431159	-0.442444	2.23388e-10	5.81298e+06	1.3751e+07	-1.18226e+07	
38895	2.76109	-1.29603	0.168369	0.0537537	-0.41728	-0.0216353	5.81298e+06	1.3751e+07	-1.18226e+07	
38925	2.76277	-1.28031	0.167789	0.0572414	-0.409029	-0.0287289	2.53652e+06	2.37957e+07	-876625	
38984	2.77148	-1.23293	0.1637	0.0743602	-0.429029	4.50944e-11	7.05043e+06	1.26518e+07	-7.00321e+06	
39014	2.76826	-1.20796	0.162676	0.0781674	-0.422197	-0.00378173	-4.9008e+06	3.79807e+07	-1.55788e+06	
39045	2.7819	-1.20444	0.162365	0.075815	-0.403966	-0.00452952	2.07798e+07	5.35966e+06	-473598	
39075	2.77904	-1.18569	0.156455	0.0839191	-0.401876	-0.00471422	-4.36262e+06	2.86026e+07	-9.01728e+06	
39104	2.78619	-1.18247	0.159408	0.0823486	-0.391579	-0.00796044	1.09239e+07	4.92851e+06	4.51257e+06	
39135	2.78619	-1.18247	0.159408	0.0964404	-0.385221	-0.00213922	1.09239e+07	4.92851e+06	4.51257e+06	
39165	2.79374	-1.14749	0.154944	0.102995	-0.382264	0.000568321	1.15726e+07	5.35893e+07	-6.84006e+06	
39194	2.79596	-1.13869	0.151917	0.112369	-0.338857	-0.00497213	3.4083e+06	1.34985e+07	-4.64424e+06	
39225	2.82249	-1.13438	0.154086	0.115436	-0.326708	-0.00915194	4.0751e+07	6.63564e+06	3.33247e+06	
39255	2.82623	-1.11596	0.15082	0.127661	-0.324718	-0.0081522	5.75221e+06	2.83613e+07	-5.03096e+06	
39285	2.83838	-1.1114	0.147899	0.130767	-0.309402	-0.0108689	1.87373e+07	7.0334e+06	-4.5036e+06	
39314	2.83468	-1.08387	0.136239	0.14482	-0.304127	-0.0142466	-5.70732e+06	4.24911e+07	-1.79982e+07	
39344	2.85827	-1.08157	0.140909	0.141396	-0.278633	-0.0250455	3.64733e+07	3.56429e+06	7.22164e+06	
39375	2.85827	-1.08157	0.140909	0.1972	-0.273179	-0.0139964	3.64733e+07	3.56429e+06	7.22164e+06	
39434	2.88192	-1.01521	0.118146	0.266896	-0.329434	6.53345e-11	2.29298e+07	3.61752e+07	-1.69559e+07	
39464	2.89161	-0.99826	0.114867	0.273087	-0.319667	-0.0045781	1.50746e+07	2.63841e+07	-5.10363e+06	
39494	2.89852	-0.994163	0.112005	0.276253	-0.314126	-0.00564987	1.07763e+07	6.38709e+06	-4.46355e+06	
39525	2.90863	-0.974605	0.105277	0.281749	-0.310869	-0.00792628	1.57763e+07	3.05282e+07	-1.05017e+07	
39555	2.93101	-0.975129	0.10627	0.291215	-0.292552	-0.0142273	3.49816e+07	-818379	1.55255e+06	
39615	2.94226	-0.966773	0.102123	0.367126	-0.320405	6.04423e-10	1.76249e+07	1.30911e+07	-6.49782e+06	
39734	2.99271	-0.903375	0.0782676	0.382234	-0.29835	4.76707e-10	3.50155e+07	4.41220e+06	1.53015e+06	
39764	2.99179	-0.869217	0.0667838	0.397991	-0.296365	0.000688568	-1.45028e+06	5.39684e+07	-1.81442e+07	
39795	3.01759	-0.885709	0.0761848	0.397295	-0.27046	-0.00802065	4.08211e+07	-2.60965e+07	1.48759e+07	
39825	3.03963	-0.883	0.0759314	0.415664	-0.282203	-0.00132649	3.49323e+07	4.29337e+06	-401682	
39854	3.03963	-0.883	0.0759314	0.461775	-0.276536	-0.00185671	3.49323e+07	4.29337e+06	-401682	
39884	3.04314	-0.856513	0.0638195	0.470159	-0.275506	-0.00195312	5.58355e+06	4.21172e+07	-1.9259e+07	
39915	3.07098	-0.87389	0.0660524	0.472839	-0.25529	-0.0111975	4.43223e+07	-2.76632e+07	3.55466e+06	
39945	3.08232	-0.852345	0.0606555	0.504751	-0.275207	-0.0086381	1.807e+07	3.43363e+07	-8.601e+06	
39975	3.10533	-0.861384	0.0664369	0.517219	-0.251515	-0.0145728	3.67304e+07	-1.44275e+07	9.22797e+06	
40004	3.11047	-0.839106	0.0505938	0.546971	-0.263201	-0.00709813	8.20676e+06	3.56039e+07	-2.53197e+07	
40034	3.13002	-0.835364	0.0564448	0.552633	-0.238635	-0.0245687	3.12992e+07	5.99088e+06	9.36671e+06	
40065	3.15079	-0.829971	0.062389	0.570474	-0.23522	-0.0192297	3.33073e+07	8.64778e+06	9.53262e+06	
40095	3.15333	-0.81328	0.0620499	0.599451	-0.227696	-0.0109363	4.07547e+06	2.67948e+07	-544465	
40124	3.17069	-0.825969	0.0560131	0.602019	-0.210815	-0.0112793	2.79268e+07	-2.04071e+07	-9.70869e+06	
40154	3.17069	-0.825969	0.0560131	0.644747	-0.242038	-0.0261336	2.79268e+07	-2.04071e+07	-9.70869e+06	
40185	3.188	-0.822989	0.0414988	0.664854	-0.256731	-0.0331239	2.79181e+07	4.80608e+06	-2.34101e+07	
40215	3.20048	-0.802504	0.0446401	0.684955	-0.253271	-0.0499792	2.01599e+07	3.30892e+07	5.07426e+06	
40245	3.21799	-0.798368	0.0409768	0.69947	-0.229447	-0.0463257	2.8321e+07	6.69184e+06	-5.9263e+06	
40274	3.22777	-0.801743	0.0457358	0.716463	-0.225432	-0.0498815	1.58462e+07	-5.46943e+06	7.71144e+06	
40305	3.24385	-0.801518	0.0442141	0.726921	-0.229042	-0.0447919	2.61046e+07	365880	-2.4693e+06	
40335	3.25558	-0.805525	0.0416012	0.744933	-0.228789	-0.0464958	1.90489e+07	-6.51224e+06	-4.24618e+06	
40365	3.2777	-0.816158	0.0500947	0.746076	-0.22918	-0.0467505	3.60489e+07	-1.73239e+07	1.38375e+07	
40544	3.33298	-0.830466	0.0406058	0.128989	0.0379472	2.31693e-11	2.05793e+07	-1.81721e+07	1.40515e+07	
40574	3.33706	-0.836198	0.0449743	0.138867	0.0292246	0.00674472	6.71314e+06	-9.42873e+06	7.18595e+06	
40605	3.34384	-0.823619	0.0326641	0.142693	0.0238502	0.0108407	1.11817e+07	2.07204e+07	-2.02776e+07	
40635	3.35613	-0.842612	0.0348114	0.145713	0.0294447	0.00536576	2.02716e+07	-3.13468e+07	3.54414e+06	
40664	3.35445	-0.835519	0.0307162	0.156659	0.0125174	0.00727959	-2.76585e+06	1.17175e+07	-6.76569e+06	
40694	3.36028	-0.834498	0.0297492	0.155498	0.0174388	0.004438	9.64613e+06	1.69055e+06	-1.60031e+06	
40755	3.36551	-0.841395	0.0335641	0.0364668	0.0785079	1.2497e-10	8.67603e+06	-1.14384e+07	6.32682e+06	
40784	3.36279	-0.832682	0.0235348	0.0432341	0.069586	0.00493492	-4.53122e+06	1.44741e+07	-1.66609e+07	
40815	3.36716	-0.838198	0.0232564	0.0403794	0.0787047	-0.00556144	7.27443e+06	-9.18076e+06	-463203	
40845	3.36716	-0.838198	0.0232564	0.0515093	0.0646581	-0.00627014	7.27443e+06	-9.18076e+06	-463203	
40905	3.36221	-0.832144	0.0158435	0.00219898	0.0598388	2.66447e-10	-2.1738e+06	-333077	3.62426e+06	
40934	3.3738	-0.849563	0.0240765	0.0008947	0.0596389	0.00217455	1.94132e+07	-2.91578e+07	1.37817e+07	
41024	3.37256	-0.876776	0.030853	-0.0235614	0.0328553	1.40961e-10	-5.2165e+06	-1.17056e+07	-21087	
41055	3.36755	-0.869864	0.0325449	-0.0246568	0.0303971	-4.42814e-06	-8.43864e+06	1.16453e+07	2.85077e+06	
41085	3.36755	-0.869864	0.0325449	-0.0340237	0.0433234	0.00315993	-8.43864e+06	1.16453e+07	2.85077e+06	
41114	3.36417	-0.869478	0.0353358	-0.0393401	0.05066	0.00495592	-5.71695e+06	651554	4.71284e+06	
41145	3.36769	-0.873864	0.0278456	-0.0431133	0.05109	0.0080664	5.96881e+06	-7.41534e+06	-1.26661e+07	
41175	3.3647	-0.879919	0.02914	-0.0402482	0.0475306	0.00198668	-5.07331e+06	-1.0259e+07	2.19283e+06	
41204	3.36338	-0.87545	0.0314657	-0.0434444	0.0410675	0.00336816	-2.23287e+06	7.57968e+06	3.94449e+06	
41235	3.36198	-0.883305	0.0309681	-0.045454	0.0478892	0.0069182	-2.38579e+06	-1.33353e+07	-844945	
41265	3.36104	-0.883137	0.0307095	-0.0475296	0.0362875	0.0061831	-1.59123e+06	284736	-439704	
41324	3.35782	-0.882581	0.0264887	-0.0563686	0.00267062	2.39247e-10	-5.49853e+06	947858	-7.19545e+06	
41355	3.35377	-0.892129	0.0362786	-0.0565336	0.00269906	-0.000215863	-3.19815e+06	-1.17647e+07	5.93441e+06	
41414	3.35684	-0.894796	0.0368517	-0.0659503	0.00221904	4.66714e-10	5.24876e+06	-4.56683e+06	981331	
41504	3.35147	-0.882932	0.0375019	-0.0567736	-0.0146353	2.93096e-10	-6.6129e+06	4.71329e+06	3.02314e+06	
41535	3.35035	-0.880599	0.038222	-0.060543	-0.0119488	0.00172319	-1.92689e+06	4.02008e+06	1.24112e+06	
41565	3.34817	-0.890476	0.0404172	-0.0621038	-0.0086925	0.00272849	-3.75631e+06	-1.70411e+07	3.7875e+06	
41594	3.34662	-0.88585	0.0398097	-0.0641322	-0.0178947	0.00477375	-2.68201e+06	7.99597e+06	-1.04995e+06	
41625	3.33483	-0.883878	0.041251	-0.0663851	-0.0111781	0.00389179	-2.04065e+07	3.41198e+06	2.49375e+06	
41655	3.33138	-0.874132	0.0399236	-0.0823021	-0.00851675	0.00583691	-5.97487e+06	1.68896e+07	-2.30022e+06	
41684	3.32943	-0.880054	0.0404236	-0.0846323	-0.00192981	0.00493983	-3.37933e+06	-1.02832e+07	868147	
41715	3.32771	-0.876541	0.0406262	-0.0856461	-0.00501478	0.00520027	-2.99803e+06	6.11139e+06	352425	
41745	3.32578	-0.875574	0.0382929	-0.0870852	-0.00208131	0.00536943	-3.35372e+06	1.68302e+06	-4.06296e+06	
41774	3.32576	-0.882941	0.0405915	-0.0886949	-0.00127346	0.00341921	-33778.7	-1.28466e+07	4.00807e+06	
41805	3.32576	-0.882941	0.0405915	-0.0887426	-0.0193872	0.00907059	-33778.7	-1.28466e+07	4.00807e+06	
41835	3.32758	-0.890901	0.0423066	-0.0887578	-0.0251682	0.0108742	3.18138e+06	-1.39199e+07	2.99965e+06	
41864	3.32412	-0.885237	0.0420855	-0.0872307	-0.0318497	0.012314	-6.06661e+06	9.91785e+06	-387231	
41895	3.32514	-0.881697	0.0411099	-0.0917807	-0.0244113	0.0120236	1.79466e+06	6.20638e+06	-1.71028e+06	
41924	3.32256	-0.872011	0.036049	-0.0902193	-0.0190118	0.0105357	-4.52929e+06	1.70002e+07	-8.88291e+06	
41954	3.31817	-0.871175	0.0374308	-0.0929369	-0.00881168	0.00520593	-7.72009e+06	1.47049e+06	2.42986e+06	
41984	3.31413	-0.85873	0.033042	-0.0991901	-0.00762059	0.00717412	-7.10686e+06	2.19085e+07	-7.72601e+06	
42014	3.32188	-0.873239	0.0366515	-0.10452	0.0088108	0.00137961	1.36476e+07	-2.55799e+07	6.36389e+06	
42045	3.31744	-0.873764	0.0387956	-0.0955129	-0.00807197	0.00557978	-7.82592e+06	-927913	3.78626e+06	
42075	3.31368	-0.839873	0.0320908	-0.0978607	-0.00835034	0.00671566	-6.65571e+06	5.99696e+07	-1.18639e+07	
42104	3.31027	-0.849415	0.038674	-0.099458	0.00604236	0.00386833	-6.05224e+06	-1.69105e+07	1.1666e+07	
42134	3.30967	-0.86252	0.0524351	-0.100911	0.00198383	0.00666816	-1.05774e+06	-2.32562e+07	2.44203e+07	
42165	3.31362	-0.872927	0.0541834	-0.10145	-0.0098768	0.0191225	7.00958e+06	-1.8487e+07	3.1058e+06	
42195	3.31362	-0.872927	0.0541834	-0.0915665	-0.0359435	0.0235017	7.00958e+06	-1.8487e+07	3.1058e+06	
42224	3.31232	-0.879168	0.0494397	-0.0892534	-0.0420442	0.0245266	-2.31011e+06	-1.11215e+07	-8.45299e+06	
42254	3.30788	-0.875604	0.0460961	-0.0898078	-0.0447134	0.0224979	-7.9205e+06	6.36106e+06	-5.96747e+06	
42315	3.30197	-0.874031	0.0419759	-0.0827134	0.0293503	1.15609e-10	-1.24874e+07	2.87861e+07	-1.58827e+07	
42345	3.29366	-0.876383	0.0446248	-0.0868342	0.0388498	-0.00524129	-1.49016e+07	-4.21494e+06	4.74734e+06	
42375	3.298	-0.884187	0.0464697	-0.093987	0.0368266	-0.00296257	7.78609e+06	-1.40021e+07	3.31006e+06	
42404	3.29138	-0.886279	0.0428299	-0.0888482	0.0275852	-0.000777927	-1.18841e+07	-3.75761e+06	-6.53786e+06	
42434	3.28163	-0.872858	0.0447346	-0.0963352	0.0252179	-0.00489678	-1.75446e+07	2.41424e+07	3.42628e+06	
42465	3.27814	-0.876118	0.0483264	-0.103178	0.0346334	-0.00356053	-6.28529e+06	-5.87475e+06	6.47297e+06	
42495	3.28074	-0.881892	0.0520072	-0.104686	0.0332235	-0.00200702	4.68644e+06	-1.04228e+07	6.64449e+06	
42524	3.27557	-0.876995	0.0465664	-0.10314	0.029784	0.000185664	-9.33722e+06	8.84975e+06	-9.83346e+06	
42555	3.26827	-0.876861	0.0457996	-0.106221	0.0327044	-0.00305938	-1.32097e+07	242907	-1.38788e+06	
42585	3.26816	-0.88213	0.0530638	-0.109787	0.03277	-0.00343411	-214067	-9.55095e+06	1.31678e+07	
42615	3.26816	-0.88213	0.0530638	-0.110038	0.0215953	0.0119722	-214067	-9.55095e+06	1.31678e+07	
42645	3.2671	-0.890526	0.0544333	-0.110205	0.0141456	0.0222431	-1.92305e+06	-1.52511e+07	2.48754e+06	
42674	3.25175	-0.870381	0.0472909	-0.111416	0.00453741	0.0238102	-2.7924e+07	3.66491e+07	-1.29939e+07	
42704	3.24619	-0.872514	0.0493778	-0.134035	0.0342232	0.0132852	-1.0132e+07	-3.8844e+06	3.80092e+06	
42765	3.24172	-0.877176	0.0515302	-0.11593	0.0617884	2.12966e-10	-2.34639e+06	-7.69244e+06	5.3876e+06	
42795	3.24172	-0.877176	0.0515302	-0.120224	0.0477112	0.0098593	-2.34639e+06	-7.69244e+06	5.3876e+06	
42824	3.23516	-0.886412	0.0588307	-0.120576	0.0465573	0.0106674	-6.95655e+06	-1.11400e+07	9.72874e+06	
42854	3.22909	-0.885971	0.0597219	-0.122037	0.0442179	0.0127105	-1.11533e+07	810779	1.63609e+06	
42885	3.22132	-0.879352	0.0606816	-0.125383	0.0444611	0.0132013	-1.42769e+07	1.21663e+07	1.76421e+06	
42915	3.21477	-0.880285	0.0657822	-0.131379	0.049571	0.0139423	-1.20556e+07	-1.71581e+06	9.38766e+06	
42945	3.21299	-0.882723	0.0673178	-0.136804	0.0487989	0.0181667	-3.28178e+06	-4.49409e+06	2.83001e+06	
43004	3.19296	-0.877905	0.0663394	-0.0920272	0.0256995	1.60479e-10	-3.69803e+07	8.89718e+06	-1.80654e+06	
43035	3.19512	-0.879472	0.0681255	-0.119762	0.0323724	-0.0013549	3.98729e+06	-2.89984e+06	3.30407e+06	
43065	3.19317	-0.884269	0.0714695	-0.116533	0.0300235	0.00132139	-3.61504e+06	-8.88423e+06	6.19395e+06	
43095	3.18708	-0.884223	0.0730811	-0.11881	0.0244265	0.00522358	-1.12863e+07	85533.4	2.99008e+06	
43124	3.17785	-0.879614	0.0765461	-0.125582	0.0244778	0.00701763	-1.7161e+07	8.5618e+06	6.43788e+06	
43155	3.17078	-0.871988	0.0718183	-0.126612	0.0249915	0.0074039	-114463	-4.68814e+06	634837	
43185	3.17078	-0.871988	0.0718183	-0.126722	0.0204909	0.00801335	-114463	-4.68814e+06	634837	
43215	3.16815	-0.874182	0.0714859	-0.12677	0.0185219	0.00827998	-4.90506e+06	-4.09491e+06	-620422	
43274	3.16545	-0.870295	0.0702594	-0.0829074	-0.0101856	3.89492e-11	-5.04278e+06	7.26662e+06	-2.29281e+06	
43305	3.1614	-0.869157	0.0752646	-0.0844203	-0.00800558	-0.000687843	-7.59949e+06	2.13223e+06	9.38197e+06	
43335	3.15742	-0.870566	0.0772642	-0.0857882	-0.00762178	0.00100091	-7.47435e+06	-2.64508e+06	3.75408e+06	
43364	3.15396	-0.866159	0.0776615	-0.0882547	-0.00849466	0.00223976	-6.4926e+06	8.28414e+06	746701	
43394	3.14944	-0.864137	0.0787595	-0.091566	-0.00426975	0.00262057	-8.51639e+06	3.80346e+06	2.06597e+06	
43425	3.1483	-0.866251	0.0784053	-0.0969313	-0.00187357	0.00392214	-2.13912e+06	-3.98242e+06	-667235	
43455	3.14221	-0.862088	0.0817392	-0.098664	-0.00509933	0.00338167	-1.14894e+07	7.85158e+06	6.28762e+06	
43484	3.13975	-0.867213	0.081416	-0.106592	0.00031826	0.00772013	-4.6399e+06	-9.68106e+06	-610486	
43514	3.14573	-0.875791	0.0805829	-0.109654	-0.00607124	0.00731721	1.13112e+07	-1.62246e+07	-1.57588e+06	
43545	3.13785	-0.869254	0.0827027	-0.102528	-0.0162927	0.00632441	-1.49325e+07	1.2382e+07	4.01572e+06	
43575	3.13726	-0.871484	0.0833479	-0.107904	-0.0118352	0.00777007	-1.12548e+06	-4.23046e+06	1.22435e+06	
43605	3.13615	-0.883172	0.087076	-0.108241	-0.0131044	0.00813737	-2.10276e+06	-2.22146e+07	7.08534e+06	
43664	3.13048	-0.878299	0.0872958	-0.0829551	-0.0505384	8.85267e-11	-8.32881e+06	1.24034e+06	-3.88899e+06	
43694	3.12701	-0.865789	0.0834639	-0.086703	-0.0499803	-0.00175004	-6.63397e+06	2.38688e+07	-7.31074e+06	
43725	3.1195	-0.858151	0.0901485	-0.0898873	-0.0385232	-0.0052592	-1.43427e+07	1.45907e+07	1.27708e+07	
43755	3.1195	-0.858151	0.0901485	-0.10968	-0.018388	0.0123644	-1.43427e+07	1.45907e+07	1.27708e+07	
43785	3.1138	-0.855964	0.104067	-0.119577	-0.00832041	0.0211763	-1.09202e+07	4.18858e+06	2.66552e+07	
43814	3.10982	-0.856836	0.0992256	-0.125801	-0.00593292	0.0363697	-7.62562e+06	-1.67267e+06	-9.28557e+06	
43844	3.10999	-0.864294	0.0902893	-0.130377	-0.00693652	0.0307984	334477	-1.43226e+07	-1.71626e+07	
43875	3.11194	-0.876303	0.0926081	-0.130086	-0.0193972	0.0158669	3.74596e+06	-2.30876e+07	4.45786e+06	
43905	3.11111	-0.875949	0.0946043	-0.127164	-0.0374055	0.0193441	-1.60271e+06	681213	3.8435e+06	
43935	3.11123	-0.876856	0.09272	-0.128366	-0.0368945	0.0222267	225536	-1.7488e+06	-3.63308e+06	
43964	3.10446	-0.871047	0.0931997	-0.128264	-0.0376815	0.0205918	-1.30727e+07	1.12215e+07	926493	
44025	3.10911	-0.877367	0.100699	-0.0407957	0.0149281	7.218e-10	8.99687e+06	-1.22254e+07	1.45043e+07	
44055	3.10198	-0.875069	0.0978099	-0.0337782	0.00539232	0.0113134	-1.38263e+07	4.45505e+06	-5.60023e+06	
44084	3.09976	-0.876558	0.0940532	-0.0429035	0.00833265	0.00761724	-4.30876e+06	-2.88975e+06	-7.29353e+06	
44114	3.10095	-0.880127	0.0946184	-0.045618	0.00651211	0.00302232	2.31947e+06	-6.93994e+06	1.09898e+06	
44145	3.08492	-0.865557	0.0889218	-0.0441568	0.00213995	0.00371467	-3.12066e+07	2.83683e+07	-1.10908e+07	
44205	3.08769	-0.868503	0.0913012	-0.0078003	0.0215982	5.87458e-11	-8.24109e+06	1.52144e+07	1.92574e+06	
44264	3.08699	-0.871121	0.0886783	0.00569857	0.0257004	3.12039e-10	-1.36032e+06	-5.12098e+06	-5.13143e+06	
44294	3.09139	-0.876408	0.097119	0.00488238	0.0226278	-0.00307886	8.62872e+06	-1.03643e+07	1.65453e+07	
44325	3.08465	-0.865388	0.0858781	0.00617668	0.0210731	-0.000597055	-9.22767e+06	1.55917e+07	-8.87507e+06	
44355	3.0858	-0.879	0.0916054	0.00423888	0.0243474	-0.00246082	2.27604e+06	-2.67717e+07	1.12641e+07	
44385	3.08955	-0.884929	0.0910539	0.00498997	0.0155127	0.00125634	7.3705e+06	-1.16734e+07	-1.08586e+06	
44414	3.09127	-0.885428	0.0904381	0.00764335	0.0113103	0.000865433	3.4031e+06	-984720	-1.21413e+06	
44444	3.088	-0.882486	0.0912113	0.00805172	0.0111921	0.000719737	-6.4625e+06	5.81011e+06	1.52704e+06	
44475	3.088	-0.882486	0.0912113	0.00126609	0.0172927	0.00232313	-6.4625e+06	5.81011e+06	1.52704e+06	
44505	3.09163	-0.880869	0.0867415	-0.00338691	0.021476	0.0034226	7.17612e+06	3.19907e+06	-8.84379e+06	
44535	3.09147	-0.882079	0.0889899	0.00285632	0.0242592	-0.0042715	-304753	-2.39596e+06	4.45366e+06	
44564	3.09156	-0.884233	0.0897099	0.00264604	0.022606	-0.00119847	165550	-4.27436e+06	1.4284e+06	
44594	3.09423	-0.888688	0.0881686	0.0027702	0.0194002	-0.000127175	5.31646e+06	-8.84825e+06	-3.06172e+06	
44625	3.08869	-0.887597	0.0903008	0.00691704	0.0124986	-0.00251532	-1.10348e+07	2.16979e+06	4.24112e+06	
44655	3.09585	-0.897072	0.0919333	-0.00202113	0.0142561	0.000919989	1.42651e+07	-1.88717e+07	3.25151e+06	
44684	3.10015	-0.90106	0.0915954	-0.000737265	0.0125577	0.00121262	8.58729e+06	-7.96109e+06	-674665	
44715	3.09936	-0.899365	0.0867151	0.00183892	0.0101693	0.00101023	-1.58656e+06	3.38753e+06	-9.75335e+06	
44744	3.09936	-0.899365	0.0867151	-1.73495e-05	0.0141328	-0.0104012	-1.58656e+06	3.38753e+06	-9.75335e+06	
44774	3.07407	-0.898449	0.0869454	-0.000398123	0.0149458	-0.012742	-5.06707e+07	1.83632e+06	461447	
44805	3.07943	-0.901142	0.0834738	-0.0262402	0.0158823	-0.0125067	1.07545e+07	-5.40302e+06	-6.964e+06	
44835	3.07645	-0.903216	0.0820157	-0.0188196	0.0121542	-0.0173118	-5.99101e+06	-4.16438e+06	-2.92805e+06	
44865	3.0756	-0.903744	0.0830608	-0.019898	0.0114046	-0.0178389	2.83181e+06	-8.72782e+06	2.42821e+06	
44895	3.0756	-0.903744	0.0830608	-0.0168396	0.00197857	-0.0152164	2.83181e+06	-8.72782e+06	2.42821e+06	
44924	3.07518	-0.904951	0.0819327	-0.0148857	-0.00404362	-0.0135409	-839680	-2.43267e+06	-2.27436e+06	
44955	3.07559	-0.904877	0.081814	-0.015591	-0.00608707	-0.0154514	827118	149257	-239465	
44984	3.07592	-0.910687	0.0836811	-0.0150203	-0.00598408	-0.0156166	667215	-1.17455e+07	3.7743e+06	
45015	3.07432	-0.908821	0.0846444	-0.0144398	-0.0162027	-0.012333	-3.25045e+06	3.77818e+06	1.94947e+06	
45045	3.09442	-0.912643	0.0816029	-0.0166826	-0.0135958	-0.0109879	4.07525e+07	-7.74723e+06	-6.16508e+06	
45074	3.09123	-0.90942	0.0840926	0.000433418	-0.0168496	-0.0135772	-6.47881e+06	6.54254e+06	5.05499e+06	
45104	3.08939	-0.913474	0.0848357	-0.000538403	-0.0158682	-0.0128189	-3.75059e+06	-8.24523e+06	1.51155e+06	
45135	3.08986	-0.914234	0.0836782	-0.00188861	-0.0188365	-0.0122748	961021	-1.5462e+06	-2.35685e+06	
45165	3.09072	-0.91862	0.0828127	-0.00157148	-0.0193467	-0.0130525	1.74809e+06	-8.94438e+06	-1.7646e+06	
45194	3.09066	-0.917109	0.083566	-0.00109949	-0.0217617	-0.013529	-108764	3.08608e+06	1.53801e+06	
45225	3.09066	-0.917109	0.083566	-0.00123001	-0.0180584	-0.0116834	-108764	3.08608e+06	1.53801e+06	
45255	3.08878	-0.921527	0.0808863	-0.00125285	-0.0174104	-0.0113604	-3.84749e+06	-9.04497e+06	-5.48645e+06	
45284	3.09456	-0.925546	0.0845477	-0.00171455	-0.0184957	-0.0120188	1.18471e+07	-8.23956e+06	7.50698e+06	
45315	3.08966	-0.919648	0.082307	0.002195	-0.0212148	-0.00954145	-1.00682e+07	1.21036e+07	-4.59893e+06	
45345	3.09322	-0.923897	0.0831916	-0.00324184	-0.0146789	-0.0120249	7.31851e+06	-8.72948e+06	1.81743e+06	
45374	3.09687	-0.929094	0.0818522	0.00180793	-0.0207022	-0.0107708	7.5044e+06	-1.06885e+07	-2.7549e+06	
45405	3.10353	-0.933542	0.0854701	0.0078865	-0.0293599	-0.0130023	1.37153e+07	-9.15992e+06	7.45002e+06	
45435	3.10424	-0.94115	0.0871723	0.0169386	-0.0354054	-0.0080853	1.46895e+06	-1.569e+07	3.5105e+06	
45465	3.10791	-0.943474	0.0887238	0.0179963	-0.0467022	-0.00555775	7.57999e+06	-4.79826e+06	3.20359e+06	
45494	3.1029	-0.939313	0.0866508	0.0204977	-0.0482857	-0.00450056	-1.03714e+07	8.60857e+06	-4.28833e+06	
45525	3.10113	-0.93809	0.0855771	0.0167639	-0.0451866	-0.00604436	-3.66774e+06	2.533e+06	-2.2242e+06	
45555	3.10822	-0.942187	0.0871295	0.0151135	-0.0440467	-0.00704525	1.47042e+07	-8.49689e+06	3.21945e+06	
45615	3.10237	-0.941473	0.0899431	0.0191619	0.0144126	4.42843e-11	8.53973e+06	-1.1738e+07	9.09055e+06	
45645	3.10237	-0.941473	0.0899431	0.0288971	0.00103133	0.0103632	8.53973e+06	-1.1738e+07	9.09055e+06	
45674	3.10162	-0.935592	0.0904249	0.0337648	-0.00565931	0.0155448	-1.54561e+06	1.22591e+07	1.00445e+06	
45704	3.10611	-0.942931	0.0953232	0.0327447	0.00243167	0.0162078	9.36274e+06	-1.53167e+07	1.0222e+07	
45734	3.10611	-0.942931	0.0953232	0.0473506	-0.0214624	0.0321541	9.36274e+06	-1.53167e+07	1.0222e+07	
45765	3.10574	-0.949504	0.0961933	0.0526873	-0.030193	0.0379806	-767117	-1.37545e+07	1.82078e+06	
45824	3.10634	-0.952656	0.0897539	0.00301011	0.0208981	4.79625e-11	-7.32504e+06	719482	-5.6359e+06	
45855	3.10657	-0.950547	0.0909081	0.0012521	0.0210707	-0.00135262	499969	4.43316e+06	2.42609e+06	
45885	3.10861	-0.952651	0.0924157	0.00137209	0.0221347	-0.000770354	4.28176e+06	-4.42916e+06	3.17288e+06	
45915	3.10691	-0.946443	0.0913797	0.00304198	0.0204073	0.000467068	-3.5877e+06	1.30793e+07	-2.18271e+06	
45944	3.10421	-0.944178	0.0942614	0.00153515	0.0259006	-0.00044967	-5.6913e+06	4.77969e+06	6.07910e+06	
45974	3.1095	-0.946461	0.0928621	-0.000342982	0.0274779	0.00155643	1.11798e+07	-4.82414e+06	-2.95617e+06	
46005	3.10647	-0.944743	0.0896984	0.00334635	0.025886	0.000580898	-6.41367e+06	3.63594e+06	-6.69256e+06	
46035	3.10647	-0.944743	0.0896984	-0.00454247	0.0303582	-0.00765095	-6.41367e+06	3.63594e+06	-6.69256e+06	
46064	3.10699	-0.947693	0.0928018	-0.00973755	0.0333033	-0.0130719	1.10141e+06	-6.25276e+06	6.57739e+06	
46094	3.10752	-0.956354	0.099777	-0.00901062	0.0291764	-0.00873085	1.12246e+06	-1.83847e+07	1.48057e+07	
46125	3.10586	-0.955772	0.100821	-0.00853919	0.0214549	-0.00251246	-3.51446e+06	1.23862e+06	2.2203e+06	
46155	3.09445	-0.95199	0.098758	-0.0101207	0.0220122	-0.00151332	-2.42915e+07	8.05033e+06	-4.39246e+06	
46184	3.09502	-0.952281	0.1018	-0.0225094	0.0261179	-0.00375347	1.20054e+06	-619324	6.48457e+06	
46214	3.09502	-0.952281	0.1018	-0.0208166	0.0252447	0.00538977	1.20054e+06	-619324	6.48457e+06	
46305	3.09492	-0.949816	0.102255	-0.0858784	-0.00906144	1.1092e-10	1.97516e+06	2.16126e+07	-5.62358e+06	
46334	3.09306	-0.958008	0.105425	-0.0858192	-0.00841306	-0.000168707	-3.99263e+06	-1.75872e+07	6.80681e+06	
46364	3.09018	-0.961933	0.10618	-0.0866576	-0.0121064	0.00126072	-6.17267e+06	-8.43564e+06	1.62095e+06	
46424	3.07335	-0.943496	0.108358	-0.120524	-0.0352079	3.13002e-10	-3.62353e+07	3.96792e+07	4.68756e+06	
46454	3.06719	-0.936838	0.111846	-0.141178	-0.0125908	0.00267191	-1.32721e+07	1.43573e+07	7.52088e+06	
46485	3.06306	-0.933041	0.11441	-0.151531	-0.00139211	0.0085382	-8.9257e+06	8.19439e+06	5.53416e+06	
46515	3.05598	-0.927585	0.111629	-0.157689	0.00426202	0.0123568	-1.52924e+07	1.17927e+07	-6.01062e+06	
46544	3.05192	-0.920484	0.109642	-0.165488	0.0102763	0.00929136	-8.78613e+06	1.53725e+07	-4.30156e+06	
46575	3.0412	-0.911998	0.107677	-0.172078	0.0218057	0.00606519	-2.32407e+07	1.83892e+07	-4.25849e+06	
46605	3.03296	-0.905739	0.11125	-0.178353	0.0267708	0.0049154	-1.78816e+07	1.35888e+07	7.75863e+06	
46635	3.03296	-0.905739	0.11125	-0.198738	0.0422619	0.0137602	-1.78816e+07	1.35888e+07	7.75863e+06	
46664	3.02565	-0.897487	0.110312	-0.212149	0.0524535	0.0195792	-1.59148e+07	1.79509e+07	-2.0409e+06	
46695	3.01759	-0.895783	0.110387	-0.223608	0.0653781	0.0181098	-1.75359e+07	3.70968e+06	163276	
46725	3.01759	-0.895783	0.110387	-0.252016	0.0713878	0.0183743	-1.75359e+07	3.70968e+06	163276	
46754	3.01788	-0.896787	0.110701	-0.265694	0.0742814	0.0185016	612098	-2.19034e+06	687136	
46784	3.01284	-0.893032	0.111987	-0.265235	0.0726386	0.019017	-1.09982e+07	8.21015e+06	2.81096e+06	
46815	3.00076	-0.884403	0.112307	-0.272824	0.0783036	0.0209565	-2.64568e+07	1.8891e+07	699929	
46845	2.99444	-0.879544	0.11141	-0.288698	0.0896383	0.0213765	-1.38562e+07	1.0655e+07	-1.96736e+06	
46874	2.98911	-0.878609	0.112405	-0.295349	0.0947526	0.0204322	-1.17155e+07	2.05388e+06	2.18575e+06	
46905	2.97915	-0.867406	0.110281	-0.300972	0.0957385	0.0214813	-2.18871e+07	2.46306e+07	-4.66975e+06	
46935	2.97113	-0.859722	0.112175	-0.310821	0.106822	0.0193799	-1.76526e+07	1.69145e+07	4.16856e+06	
46965	2.96334	-0.851673	0.10818	-0.315588	0.111389	0.0205054	-1.71713e+07	1.77479e+07	-8.80836e+06	
46994	2.95461	-0.841332	0.108608	-0.319709	0.115649	0.0183914	-1.92744e+07	2.28301e+07	945508	
47025	2.95461	-0.841332	0.108608	-0.34226	0.14236	0.0194977	-1.92744e+07	2.28301e+07	945508	
47054	2.94653	-0.827215	0.107811	-0.359029	0.162222	0.0203203	-1.78763e+07	3.12168e+07	-1.76145e+06	
47084	2.9344	-0.819152	0.10535	-0.373508	0.187508	0.0188935	-2.68505e+07	1.78548e+07	-5.44982e+06	
47115	2.93026	-0.812147	0.108964	-0.395257	0.20197	0.0144791	-9.18513e+06	1.55319e+07	8.01218e+06	
47145	2.92423	-0.804183	0.11078	-0.402422	0.214085	0.0207286	-1.3391e+07	1.76823e+07	4.03146e+06	
47204	2.90615	-0.781491	0.103082	-0.214504	-0.2336	7.72846e-10	-4.01853e+07	5.04472e+07	-1.71117e+07	
47234	2.90193	-0.775715	0.106398	-0.232587	-0.210899	-0.00770025	-9.42984e+06	1.28775e+07	7.39154e+06	
47265	2.89828	-0.779282	0.106361	-0.23683	-0.205104	-0.00437406	-8.14104e+06	-7.96430e+06	-82467.7	
47295	2.89239	-0.769087	0.112956	-0.240494	-0.208688	-0.00441117	-1.3157e+07	2.27909e+07	1.47441e+07	
47324	2.8934	-0.763946	0.11295	-0.244836	-0.201167	0.000454394	2.25407e+06	1.15086e+07	-14541.4	
47354	2.87153	-0.741885	0.108667	-0.244092	-0.197369	0.000449595	-4.90132e+07	4.94457e+07	-9.59873e+06	
47385	2.87153	-0.741885	0.108667	-0.305849	-0.135067	-0.0116448	-4.90132e+07	4.94457e+07	-9.59873e+06	
47414	2.86146	-0.723004	0.106922	-0.31026	-0.130617	-0.0125087	-2.37579e+07	1.51728e+07	6.40746e+06	
47444	2.86146	-0.723004	0.106922	-0.33378	-0.115596	-0.0061653	-2.37579e+07	1.51728e+07	6.40746e+06	
47475	2.86184	-0.717027	0.107306	-0.350886	-0.104672	-0.00155192	837947	1.34584e+07	863870	
47505	2.86041	-0.71166	0.104413	-0.350408	-0.0970005	-0.00105952	-3.22065e+06	1.21036e+07	-6.52228e+06	
47535	2.86115	-0.704009	0.102004	-0.351761	-0.091917	-0.00379888	1.67201e+06	1.72774e+07	-5.44139e+06	
47564	2.86095	-0.701971	0.102765	-0.351259	-0.0867338	-0.00543129	-449437	4.60894e+06	1.72127e+06	
47594	2.86283	-0.703802	0.101502	-0.351381	-0.0854894	-0.00496655	4.26193e+06	-4.14637e+06	-2.85956e+06	
47625	2.85923	-0.692996	0.0989798	-0.350358	-0.0864845	-0.00565284	-8.17466e+06	2.44998e+07	-5.71859e+06	
47714	2.86196	-0.690647	0.0980409	-0.117801	-0.308305	9.28386e-10	6.20124e+06	5.33458e+06	-2.1319e+06	
47775	2.86286	-0.6639	0.0911608	-0.0897183	-0.286214	1.87048e-10	1.12313e+06	3.1173e+07	-1.27386e+07	
47804	2.86259	-0.6543	0.0879797	-0.0894487	-0.278733	-0.00305726	-613165	2.19316e+07	-7.26718e+06	
47835	2.86225	-0.65087	0.0868562	-0.0895775	-0.274127	-0.00458337	-778880	7.84611e+06	-2.56992e+06	
47865	2.823	-0.586429	0.0874109	-0.0897177	-0.272715	-0.00504595	-8.9905e+07	1.47602e+08	1.27043e+06	
47895	2.823	-0.586429	0.0874109	-0.186815	-0.113305	-0.00367389	-8.9905e+07	1.47602e+08	1.27043e+06	
47924	2.81896	-0.573349	0.0905093	-0.262335	0.0106801	-0.00260673	-9.2642e+06	3.00064e+07	7.10799e+06	
47954	2.81581	-0.564876	0.0836729	-0.26567	0.0214825	-4.78565e-05	-7.22576e+06	1.94749e+07	-1.5713e+07	
47985	2.80884	-0.546789	0.0790475	-0.267838	0.0273249	-0.00476177	-1.60623e+07	4.16287e+07	-1.06459e+07	
48015	2.79843	-0.523009	0.0744226	-0.271693	0.0373158	-0.00731679	-2.39924e+07	5.48054e+07	-1.06589e+07	
48074	2.81591	-0.516152	0.0742517	0.0131056	-0.317341	6.29729e-11	2.52861e+07	9.88566e+06	-1.4371e+06	
48105	2.80851	-0.503562	0.0737609	0.0153814	-0.316452	-0.000129339	-1.71418e+07	2.91312e+07	-1.13554e+06	
48135	2.80851	-0.503562	0.0737609	-0.00158899	-0.287612	-0.00125352	-1.71418e+07	2.91312e+07	-1.13554e+06	
48164	2.80895	-0.494325	0.0676638	-0.0165023	-0.262268	-0.00224144	1.03836e+06	2.14015e+07	-1.4127e+07	
48194	2.81168	-0.484389	0.0680825	-0.0158793	-0.249427	-0.0107176	6.3185e+06	2.30576e+07	971703	
48225	2.81535	-0.475469	0.0673859	-0.0105718	-0.230058	-0.00990141	8.54117e+06	2.07222e+07	-1.61824e+06	
48255	2.81691	-0.46445	0.0631793	-0.00544707	-0.217625	-0.0108724	3.62771e+06	2.56373e+07	-9.78704e+06	
48285	2.81458	-0.443423	0.0631072	-0.00392344	-0.206857	-0.0149829	-5.42667e+06	4.89908e+07	-167942	
48314	2.81679	-0.432833	0.0617757	-0.00734224	-0.175993	-0.0150887	5.14383e+06	2.47003e+07	-3.10548e+06	
48345	2.82549	-0.43287	0.0623576	-0.003793	-0.15895	-0.0172315	2.03147e+07	-88399.6	1.35885e+06	
48375	2.82489	-0.410666	0.0573027	0.00656752	-0.158995	-0.0165385	-1.39255e+06	5.19239e+07	-1.18209e+07	
48405	2.82963	-0.40519	0.0594239	0.00556489	-0.12161	-0.0250495	1.10777e+07	1.28179e+07	4.96504e+06	
48434	2.83372	-0.397594	0.0552086	0.0132085	-0.112765	-0.0216236	9.59153e+06	1.78022e+07	-9.87905e+06	
48464	2.84154	-0.382182	0.0543976	0.0178124	-0.10422	-0.0263656	1.83612e+07	3.61758e+07	-1.9036e+06	
48494	2.84832	-0.365157	0.0488091	0.02277	-0.0944529	-0.0268796	1.59424e+07	4.00224e+07	-1.31373e+07	
48525	2.84658	-0.353585	0.0459543	0.0265961	-0.0848475	-0.0300325	-4.10124e+06	2.72404e+07	-6.71986e+06	
48555	2.85999	-0.347274	0.0451897	0.026227	-0.0823959	-0.0306373	3.16121e+07	1.48768e+07	-1.80242e+06	
48614	2.88161	-0.330991	0.0470952	0.132438	-0.309645	1.09883e-10	2.79057e+07	3.14536e+07	190475	
48645	2.88161	-0.330991	0.0470952	0.160064	-0.278506	0.000188571	2.79057e+07	3.14536e+07	190475	
48675	2.87837	-0.310702	0.0409201	0.166762	-0.270957	0.000234285	-7.6705e+06	4.80541e+07	-1.46255e+07	
48705	2.88999	-0.306035	0.0379956	0.16308	-0.247891	-0.00678598	2.75566e+07	1.10627e+07	-6.93290e+06	
48734	2.90084	-0.296862	0.0355768	0.179614	-0.241254	-0.0109457	2.5739e+07	2.17679e+07	-5.73991e+06	
48765	2.90106	-0.28401	0.0347877	0.191969	-0.230805	-0.0137009	532509	3.05433e+07	-1.87548e+06	
48795	2.90811	-0.269278	0.0332528	0.192336	-0.20973	-0.014995	1.67591e+07	3.50415e+07	-3.651e+06	
48854	2.93127	-0.255376	0.0216816	0.234225	-0.304715	3.01962e-10	4.24936e+07	6.19252e+06	-1.02754e+07	
48884	2.93849	-0.238415	0.0183993	0.248247	-0.302672	-0.00339087	1.72579e+07	4.05112e+07	-7.83985e+06	
48915	2.9499	-0.235971	0.0158668	0.252389	-0.292949	-0.00527244	2.72831e+07	5.84551e+06	-6.05747e+06	
48945	2.9499	-0.235971	0.0158668	0.283492	-0.286285	-0.012178	2.72831e+07	5.84551e+06	-6.05747e+06	
49034	3.00053	-0.214669	0.00135995	0.265747	-0.269292	8.96894e-11	9.03308e+06	2.03236e+07	-1.06607e+07	
49065	3.00053	-0.214669	0.00135995	0.276045	-0.246123	-0.0121532	9.03308e+06	2.03236e+07	-1.06607e+07	
49095	3.0069	-0.205499	-0.00276951	0.281193	-0.234539	-0.0182298	1.53357e+07	2.20854e+07	-9.94563e+06	
49124	3.02635	-0.200091	-0.00312863	0.287174	-0.225925	-0.0221086	4.69214e+07	1.30434e+07	-866143	
49155	3.02635	-0.200091	-0.00312863	0.349111	-0.208708	-0.0232519	4.69214e+07	1.30434e+07	-866143	
49185	3.02635	-0.200091	-0.00312863	0.453276	-0.179752	-0.0251748	4.69214e+07	1.30434e+07	-866143	
49215	3.04058	-0.193983	-0.011013	0.481429	-0.171926	-0.0256945	3.44339e+07	1.47819e+07	-1.90814e+07	
49274	3.07054	-0.172522	-0.0180793	0.287368	-0.198832	1.13473e-10	1.3268e+07	5.07836e+06	-5.65065e+06	
49305	3.09885	-0.184569	-0.0130762	0.293339	-0.196546	-0.00254279	6.87846e+07	-2.92673e+07	1.21551e+07	
49335	3.10322	-0.176016	-0.022645	0.336673	-0.214985	0.00511495	1.0624e+07	2.07981e+07	-2.32703e+07	
49394	3.129	-0.176105	-0.0192635	0.280837	-0.129443	3.71731e-10	1.63459e+07	2.35178e+07	1.51766e+06	
49425	3.13767	-0.16886	-0.0211164	0.292606	-0.11251	0.00109271	2.11585e+07	1.76812e+07	-4.52196e+06	
49455	3.14036	-0.160018	-0.0312494	0.305301	-0.101901	-0.00162047	6.57122e+06	2.16072e+07	-2.47633e+07	
49484	3.15988	-0.167551	-0.0288417	0.308455	-0.0915297	-0.0135068	4.77802e+07	-1.84326e+07	5.89183e+06	
49514	3.17737	-0.180132	-0.0297656	0.338557	-0.103142	-0.00979499	4.28205e+07	-3.08187e+07	-2.2631e+06	
49545	3.18225	-0.172573	-0.0362808	0.366818	-0.123483	-0.0112886	1.19833e+07	1.85373e+07	-1.59787e+07	
49575	3.19114	-0.167011	-0.0326569	0.373289	-0.113472	-0.0199171	2.18303e+07	1.366e+07	8.89979e+06	
49605	3.20071	-0.162037	-0.0363402	0.389662	-0.103227	-0.0132423	2.3519e+07	1.22278e+07	-9.05413e+06	
49634	3.20071	-0.162037	-0.0363402	0.427763	-0.0834183	-0.02791	2.3519e+07	1.22278e+07	-9.05413e+06	
49665	3.19362	-0.168692	-0.0393594	0.440463	-0.0768153	-0.0327992	-1.74746e+07	-1.64023e+07	-7.44188e+06	
49695	3.20656	-0.179658	-0.0391558	0.430502	-0.0861646	-0.0370411	3.19261e+07	-2.70621e+07	502522	
49725	3.22459	-0.190653	-0.0376273	0.435291	-0.0902239	-0.0369657	2.19603e+07	-1.52756e+07	4.05917e+06	
49815	3.24467	-0.189627	-0.0495151	0.148606	0.0526141	1.17932e-10	1.36181e+07	1.57658e+06	-2.62944e+07	
49844	3.24467	-0.189627	-0.0495151	0.164539	0.0544587	-0.0307644	1.36181e+07	1.57658e+06	-2.62944e+07	
49874	3.25992	-0.204455	-0.0420678	0.171076	0.0552154	-0.0433858	3.79158e+07	-3.68593e+07	1.85127e+07	
49905	3.27192	-0.221649	-0.0394081	0.193825	0.0330998	-0.0322781	2.98601e+07	-4.2786e+07	6.61867e+06	
49935	3.27517	-0.224736	-0.0418921	0.214429	0.00357754	-0.0277112	8.10092e+06	-7.69224e+06	-6.18826e+06	
49965	3.27517	-0.224736	-0.0418921	0.227309	-0.00865311	-0.0375506	8.10092e+06	-7.69224e+06	-6.18826e+06	
49994	3.27517	-0.224736	-0.0418921	0.247238	-0.027576	-0.0527737	8.10092e+06	-7.69224e+06	-6.18826e+06	
50085	3.28313	-0.235613	-0.0459849	0.0560714	0.189854	4.83883e-10	2.20251e+07	-3.10275e+07	-4.59041e+06	
50144	3.29292	-0.266354	-0.0431867	0.0441739	0.230218	3.39718e-10	8.58074e+06	-3.21763e+07	-2.37532e+06	
50174	3.29292	-0.266354	-0.0431867	0.0598767	0.171335	-0.00434684	8.58074e+06	-3.21763e+07	-2.37532e+06	
50205	3.29157	-0.27458	-0.0396813	0.0647677	0.152995	-0.00570077	-3.41716e+06	-2.07189e+07	8.82872e+06	
50264	3.29552	-0.312141	-0.0384606	-0.0156682	0.303572	1.74628e-10	-43278.9	-3.2391e+07	-5.4774e+06	
50294	3.29862	-0.330217	-0.0313779	-0.0156812	0.293854	-0.00164322	7.85477e+06	-4.57067e+07	1.79086e+07	
50325	3.2971	-0.340737	-0.0288055	-0.0114396	0.269173	0.0080274	-3.84566e+06	-2.66225e+07	6.51011e+06	
50355	3.29653	-0.353896	-0.0291586	-0.0125933	0.261186	0.00998043	-1.45787e+06	-3.33529e+07	-894987	
50414	3.28582	-0.364055	-0.0257848	-0.0844301	0.366661	7.73048e-10	-2.71716e+07	-2.57839e+07	8.5628e+06	
50445	3.28294	-0.36535	-0.0252616	-0.1097	0.342682	0.00796341	-7.31315e+06	-3.29093e+06	1.32985e+06	
50475	3.2757	-0.381155	-0.0214924	-0.115185	0.340214	0.0089608	-1.84399e+07	-4.02293e+07	9.59326e+06	
50504	3.27103	-0.394289	-0.0183956	-0.12127	0.326939	0.0121266	-1.18988e+07	-3.34833e+07	7.89544e+06	
50595	3.24573	-0.428662	-0.0126601	-0.247162	0.47247	5.39257e-10	-4.52797e+07	-2.14688e+07	-4.66275e+06	
50624	3.23593	-0.439453	-0.00481392	-0.270255	0.461521	-0.002378	-2.50921e+07	-2.76349e+07	2.00946e+07	
50654	3.23593	-0.439453	-0.00481392	-0.305634	0.422556	0.0259555	-2.50921e+07	-2.76349e+07	2.00946e+07	
50685	3.22721	-0.462714	-0.00029503	-0.316173	0.410949	0.0343952	-2.24105e+07	-5.9725e+07	1.16025e+07	
50715	3.21758	-0.463919	0.00387593	-0.326258	0.384073	0.0396163	-2.47391e+07	-3.09586e+06	1.07214e+07	
50745	3.20215	-0.494864	0.00436589	-0.341844	0.382123	0.0463708	-3.97121e+07	-7.96205e+07	1.26064e+06	
